onset	duration	trial_type	block	community	object	object_type	orientation	response	response_time
4.000	1.000	structured	1	1	1	central	rotated	n/a	n/a
10.000	1.000	structured	1	1	20	central	canonical	canonical	0.715
16.000	1.000	structured	1	1	18	boundary	canonical	canonical	0.739
20.000	1.000	structured	1	3	17	boundary	canonical	canonical	0.656
22.000	1.000	structured	1	3	13	central	canonical	rotated	0.760
24.000	1.000	structured	1	3	15	central	canonical	canonical	0.777
26.000	1.000	structured	1	3	13	central	rotated	rotated	0.853
32.000	1.000	structured	1	3	11	boundary	canonical	canonical	0.752
38.000	1.000	structured	1	3	14	central	canonical	canonical	0.723
42.000	1.000	structured	1	3	16	central	canonical	canonical	0.716
44.000	1.000	structured	1	3	11	boundary	canonical	canonical	0.716
48.000	1.000	structured	1	3	13	central	canonical	canonical	0.670
52.000	1.000	structured	1	3	14	central	canonical	canonical	0.573
56.000	1.000	structured	1	3	16	central	canonical	canonical	0.561
60.000	1.000	structured	1	3	14	central	rotated	canonical	0.639
66.000	1.000	structured	1	3	13	central	canonical	canonical	0.626
72.000	1.000	structured	1	3	15	central	canonical	canonical	0.776
74.000	1.000	structured	1	3	17	boundary	canonical	canonical	0.871
78.000	1.000	structured	1	1	18	boundary	canonical	canonical	0.618
84.000	1.000	structured	1	1	19	central	canonical	canonical	0.696
86.000	1.000	structured	1	1	2	central	canonical	canonical	0.708
88.000	1.000	scrambled	2	3	16	central	canonical	n/a	n/a
90.000	1.000	scrambled	2	1	18	boundary	canonical	canonical	0.668
94.000	1.000	scrambled	2	2	5	central	canonical	canonical	0.990
100.000	1.000	scrambled	2	1	20	central	canonical	canonical	0.778
102.000	1.000	scrambled	2	2	6	central	canonical	canonical	0.992
108.000	1.000	scrambled	2	3	13	central	canonical	canonical	0.873
112.000	1.000	scrambled	2	2	4	boundary	canonical	canonical	0.777
118.000	1.000	scrambled	2	1	3	boundary	canonical	canonical	0.827
122.000	1.000	scrambled	2	1	2	central	canonical	canonical	0.707
124.000	1.000	scrambled	2	1	1	central	canonical	canonical	0.821
130.000	1.000	scrambled	2	1	21	central	canonical	canonical	0.628
136.000	1.000	scrambled	2	3	14	central	canonical	canonical	0.702
138.000	1.000	scrambled	2	2	10	boundary	canonical	canonical	0.678
142.000	1.000	scrambled	2	3	11	boundary	canonical	canonical	0.658
146.000	1.000	scrambled	2	1	19	central	canonical	canonical	0.695
150.000	1.000	scrambled	2	3	17	boundary	canonical	canonical	0.543
156.000	1.000	scrambled	2	3	15	central	canonical	canonical	0.699
158.000	1.000	scrambled	2	2	7	central	canonical	canonical	0.613
160.000	1.000	scrambled	2	3	12	central	canonical	canonical	0.592
162.000	1.000	scrambled	2	2	8	central	canonical	canonical	0.775
168.000	1.000	scrambled	2	2	9	central	canonical	canonical	0.616
174.000	1.000	structured	3	2	6	central	canonical	canonical	0.882
178.000	1.000	structured	3	2	5	central	canonical	canonical	0.871
180.000	1.000	structured	3	2	7	central	canonical	canonical	0.526
186.000	1.000	structured	3	2	8	central	canonical	canonical	0.574
192.000	1.000	structured	3	2	4	boundary	canonical	canonical	0.691
198.000	1.000	structured	3	2	7	central	canonical	canonical	0.609
202.000	1.000	structured	3	2	5	central	canonical	canonical	0.733
208.000	1.000	structured	3	2	8	central	canonical	canonical	0.655
210.000	1.000	structured	3	2	5	central	rotated	rotated	0.866
216.000	1.000	structured	3	2	4	boundary	canonical	canonical	0.997
220.000	1.000	structured	3	2	8	central	canonical	canonical	0.680
226.000	1.000	structured	3	2	5	central	canonical	canonical	0.948
232.000	1.000	structured	3	2	6	central	canonical	canonical	0.719
234.000	1.000	structured	3	2	5	central	rotated	rotated	0.902
240.000	1.000	structured	3	2	7	central	canonical	canonical	0.593
242.000	1.000	structured	3	2	8	central	canonical	n/a	n/a
246.000	1.000	structured	3	2	10	boundary	canonical	canonical	0.513
250.000	1.000	structured	3	2	6	central	canonical	canonical	0.602
256.000	1.000	structured	3	2	8	central	canonical	canonical	0.564
262.000	1.000	structured	3	2	4	boundary	canonical	canonical	0.733
264.000	1.000	structured	3	2	5	central	canonical	n/a	n/a
268.000	1.000	structured	4	2	4	boundary	rotated	rotated	0.930
272.000	1.000	structured	4	2	9	central	canonical	canonical	0.560
276.000	1.000	structured	4	2	10	boundary	canonical	canonical	0.575
278.000	1.000	structured	4	2	6	central	canonical	canonical	0.915
282.000	1.000	structured	4	2	4	boundary	canonical	n/a	n/a
284.000	1.000	structured	4	2	6	central	rotated	rotated	0.859
290.000	1.000	structured	4	2	9	central	canonical	canonical	0.534
294.000	1.000	structured	4	2	8	central	canonical	canonical	0.644
298.000	1.000	structured	4	2	7	central	canonical	canonical	0.654
300.000	1.000	structured	4	2	10	boundary	canonical	canonical	0.621
304.000	1.000	structured	4	2	7	central	rotated	rotated	0.718
308.000	1.000	structured	4	2	4	boundary	canonical	canonical	0.668
312.000	1.000	structured	4	2	9	central	canonical	canonical	0.594
314.000	1.000	structured	4	2	4	boundary	rotated	rotated	0.712
316.000	1.000	structured	4	2	8	central	canonical	canonical	0.712
318.000	1.000	structured	4	2	9	central	canonical	n/a	n/a
324.000	1.000	structured	4	2	8	central	rotated	rotated	0.722
326.000	1.000	structured	4	2	7	central	canonical	canonical	0.619
330.000	1.000	structured	4	2	10	boundary	canonical	canonical	0.617
336.000	1.000	structured	4	3	11	boundary	canonical	canonical	0.877
342.000	1.000	structured	4	3	14	central	canonical	canonical	0.747
348.000	1.000	scrambled	5	3	13	central	canonical	canonical	0.778
352.000	1.000	scrambled	5	1	3	boundary	canonical	canonical	0.613
354.000	1.000	scrambled	5	2	5	central	canonical	canonical	0.699
356.000	1.000	scrambled	5	2	10	boundary	canonical	canonical	0.560
360.000	1.000	scrambled	5	2	8	central	canonical	canonical	0.995
362.000	1.000	scrambled	5	3	14	central	canonical	canonical	0.768
364.000	1.000	scrambled	5	1	19	central	canonical	canonical	0.736
368.000	1.000	scrambled	5	1	1	central	canonical	canonical	0.578
374.000	1.000	scrambled	5	1	21	central	canonical	canonical	0.772
380.000	1.000	scrambled	5	2	4	boundary	canonical	canonical	0.709
384.000	1.000	scrambled	5	3	11	boundary	canonical	canonical	0.646
386.000	1.000	scrambled	5	1	18	boundary	canonical	canonical	0.867
388.000	1.000	scrambled	5	3	15	central	canonical	canonical	0.662
390.000	1.000	scrambled	5	3	12	central	canonical	canonical	0.591
396.000	1.000	scrambled	5	2	9	central	canonical	canonical	0.595
398.000	1.000	scrambled	5	2	7	central	canonical	canonical	0.630
402.000	1.000	scrambled	5	2	6	central	canonical	canonical	0.682
406.000	1.000	scrambled	5	1	20	central	canonical	canonical	0.625
412.000	1.000	scrambled	5	3	16	central	canonical	canonical	0.670
414.000	1.000	scrambled	5	3	17	boundary	canonical	canonical	0.741
418.000	1.000	scrambled	5	1	2	central	canonical	canonical	0.799
420.000	1.000	structured	6	1	19	central	canonical	canonical	0.636
426.000	1.000	structured	6	1	21	central	canonical	canonical	0.543
432.000	1.000	structured	6	1	20	central	canonical	canonical	0.607
434.000	1.000	structured	6	1	2	central	canonical	canonical	0.575
438.000	1.000	structured	6	1	1	central	canonical	canonical	0.520
440.000	1.000	structured	6	1	19	central	canonical	n/a	n/a
444.000	1.000	structured	6	1	2	central	canonical	canonical	0.619
450.000	1.000	structured	6	1	18	boundary	canonical	canonical	0.803
456.000	1.000	structured	6	3	17	boundary	canonical	canonical	0.607
462.000	1.000	structured	6	3	15	central	canonical	canonical	0.725
466.000	1.000	structured	6	3	17	boundary	rotated	rotated	0.878
468.000	1.000	structured	6	3	13	central	canonical	canonical	0.717
474.000	1.000	structured	6	3	16	central	canonical	canonical	0.639
478.000	1.000	structured	6	3	11	boundary	canonical	canonical	0.691
484.000	1.000	structured	6	3	12	central	canonical	canonical	0.598
488.000	1.000	structured	6	3	11	boundary	rotated	canonical	0.901
494.000	1.000	structured	6	3	15	central	canonical	canonical	0.809
496.000	1.000	structured	6	3	12	central	canonical	canonical	0.740
502.000	1.000	structured	6	3	13	central	canonical	canonical	0.894
508.000	1.000	structured	6	3	15	central	canonical	canonical	0.625
514.000	1.000	structured	6	3	13	central	rotated	rotated	0.952
516.000	1.000	structured	7	3	17	boundary	canonical	canonical	0.666
522.000	1.000	structured	7	3	13	central	rotated	n/a	n/a
526.000	1.000	structured	7	3	15	central	canonical	canonical	0.588
528.000	1.000	structured	7	3	16	central	canonical	canonical	0.608
530.000	1.000	structured	7	3	13	central	canonical	n/a	n/a
532.000	1.000	structured	7	3	11	boundary	canonical	canonical	0.936
536.000	1.000	structured	7	3	16	central	canonical	canonical	0.645
542.000	1.000	structured	7	3	11	boundary	rotated	canonical	0.560
546.000	1.000	structured	7	3	16	central	rotated	rotated	0.804
550.000	1.000	structured	7	3	15	central	canonical	canonical	0.592
554.000	1.000	structured	7	3	11	boundary	canonical	canonical	0.648
560.000	1.000	structured	7	2	10	boundary	canonical	canonical	0.572
566.000	1.000	structured	7	2	5	central	canonical	canonical	0.733
570.000	1.000	structured	7	2	4	boundary	canonical	canonical	0.676
572.000	1.000	structured	7	2	8	central	canonical	canonical	0.683
574.000	1.000	structured	7	2	5	central	canonical	canonical	0.612
578.000	1.000	structured	7	2	4	boundary	canonical	canonical	0.670
582.000	1.000	structured	7	2	7	central	canonical	canonical	0.585
584.000	1.000	structured	7	2	8	central	canonical	canonical	0.634
586.000	1.000	structured	7	2	5	central	canonical	canonical	0.722
590.000	1.000	structured	7	2	9	central	canonical	canonical	0.592
