onset	duration	trial_type	block	community	object	object_type	orientation	response	response_time
4.000	1.000	structured	1	1	21	central	canonical	canonical	0.783
6.000	1.000	structured	1	1	3	boundary	canonical	canonical	0.716
10.000	1.000	structured	1	1	2	central	canonical	canonical	0.686
12.000	1.000	structured	1	1	19	central	canonical	canonical	0.651
18.000	1.000	structured	1	1	3	boundary	canonical	canonical	0.711
20.000	1.000	structured	1	1	21	central	canonical	canonical	0.781
24.000	1.000	structured	1	1	2	central	canonical	canonical	0.693
28.000	1.000	structured	1	1	19	central	canonical	canonical	0.722
32.000	1.000	structured	1	1	18	boundary	canonical	canonical	0.953
34.000	1.000	structured	1	1	20	central	canonical	canonical	0.606
36.000	1.000	structured	1	1	18	boundary	rotated	rotated	0.887
38.000	1.000	structured	1	3	17	boundary	canonical	canonical	0.944
42.000	1.000	structured	1	1	18	boundary	rotated	rotated	0.852
48.000	1.000	structured	1	3	17	boundary	rotated	rotated	0.930
54.000	1.000	structured	1	3	13	central	canonical	canonical	0.771
60.000	1.000	structured	1	3	12	central	canonical	canonical	0.845
66.000	1.000	structured	1	3	15	central	canonical	canonical	0.754
72.000	1.000	structured	1	3	13	central	canonical	canonical	0.682
76.000	1.000	structured	1	3	16	central	canonical	canonical	0.673
80.000	1.000	structured	1	3	17	boundary	canonical	canonical	0.744
82.000	1.000	structured	1	3	16	central	rotated	rotated	0.910
88.000	1.000	scrambled	2	3	17	boundary	rotated	rotated	0.911
92.000	1.000	scrambled	2	2	8	central	canonical	canonical	0.974
98.000	1.000	scrambled	2	2	6	central	canonical	canonical	0.995
102.000	1.000	scrambled	2	3	16	central	canonical	canonical	0.678
108.000	1.000	scrambled	2	3	15	central	canonical	canonical	0.659
112.000	1.000	scrambled	2	2	10	boundary	canonical	canonical	0.943
116.000	1.000	scrambled	2	3	14	central	canonical	canonical	0.714
118.000	1.000	scrambled	2	3	11	boundary	canonical	canonical	0.723
122.000	1.000	scrambled	2	3	13	central	canonical	canonical	0.626
126.000	1.000	scrambled	2	2	5	central	canonical	canonical	0.711
128.000	1.000	scrambled	2	1	21	central	canonical	canonical	0.761
130.000	1.000	scrambled	2	3	12	central	canonical	canonical	0.760
132.000	1.000	scrambled	2	1	1	central	canonical	canonical	0.655
136.000	1.000	scrambled	2	2	9	central	canonical	canonical	0.761
142.000	1.000	scrambled	2	2	4	boundary	canonical	canonical	0.814
148.000	1.000	scrambled	2	1	19	central	canonical	canonical	0.705
154.000	1.000	scrambled	2	1	20	central	canonical	canonical	0.585
156.000	1.000	scrambled	2	1	3	boundary	canonical	canonical	0.714
162.000	1.000	scrambled	2	1	2	central	canonical	canonical	0.701
166.000	1.000	scrambled	2	2	7	central	canonical	canonical	0.875
172.000	1.000	scrambled	2	1	18	boundary	canonical	canonical	0.655
178.000	1.000	structured	3	3	17	boundary	canonical	canonical	0.677
184.000	1.000	structured	3	3	12	central	canonical	canonical	0.717
190.000	1.000	structured	3	3	15	central	canonical	canonical	0.665
196.000	1.000	structured	3	3	12	central	rotated	rotated	0.933
200.000	1.000	structured	3	3	13	central	canonical	canonical	0.667
204.000	1.000	structured	3	3	15	central	canonical	canonical	0.681
206.000	1.000	structured	3	3	13	central	rotated	rotated	0.892
210.000	1.000	structured	3	3	14	central	canonical	canonical	0.735
212.000	1.000	structured	3	3	17	boundary	canonical	canonical	0.992
214.000	1.000	structured	3	3	15	central	canonical	canonical	0.675
220.000	1.000	structured	3	3	17	boundary	rotated	rotated	0.882
224.000	1.000	structured	3	3	15	central	rotated	rotated	0.897
228.000	1.000	structured	3	3	14	central	canonical	canonical	0.721
234.000	1.000	structured	3	3	13	central	canonical	canonical	0.797
236.000	1.000	structured	3	3	17	boundary	canonical	canonical	0.990
238.000	1.000	structured	3	3	13	central	rotated	rotated	0.761
240.000	1.000	structured	3	3	14	central	canonical	canonical	0.594
246.000	1.000	structured	3	3	12	central	canonical	canonical	0.845
248.000	1.000	structured	3	3	13	central	canonical	canonical	0.745
250.000	1.000	structured	3	3	15	central	canonical	canonical	0.757
256.000	1.000	structured	3	3	14	central	canonical	canonical	0.629
262.000	1.000	structured	4	3	17	boundary	canonical	canonical	0.783
264.000	1.000	structured	4	3	16	central	canonical	canonical	0.680
266.000	1.000	structured	4	3	13	central	canonical	canonical	0.607
272.000	1.000	structured	4	3	11	boundary	canonical	canonical	0.759
278.000	1.000	structured	4	2	10	boundary	canonical	canonical	0.750
280.000	1.000	structured	4	2	5	central	canonical	canonical	0.846
286.000	1.000	structured	4	2	6	central	canonical	canonical	0.741
288.000	1.000	structured	4	2	9	central	canonical	canonical	0.653
294.000	1.000	structured	4	2	10	boundary	canonical	canonical	0.692
296.000	1.000	structured	4	2	7	central	canonical	canonical	0.808
302.000	1.000	structured	4	2	9	central	canonical	canonical	0.709
306.000	1.000	structured	4	2	7	central	rotated	rotated	0.873
312.000	1.000	structured	4	2	4	boundary	canonical	canonical	0.786
316.000	1.000	structured	4	2	5	central	canonical	canonical	0.715
322.000	1.000	structured	4	2	8	central	canonical	canonical	0.710
324.000	1.000	structured	4	2	5	central	rotated	rotated	0.882
326.000	1.000	structured	4	2	8	central	rotated	rotated	0.938
330.000	1.000	structured	4	2	7	central	canonical	canonical	0.852
336.000	1.000	structured	4	2	6	central	canonical	canonical	0.991
338.000	1.000	structured	4	2	4	boundary	canonical	canonical	0.720
342.000	1.000	structured	4	2	8	central	canonical	canonical	0.749
344.000	1.000	scrambled	5	1	19	central	canonical	canonical	0.707
348.000	1.000	scrambled	5	3	12	central	canonical	canonical	0.690
350.000	1.000	scrambled	5	2	8	central	canonical	canonical	0.623
354.000	1.000	scrambled	5	1	3	boundary	canonical	canonical	0.673
360.000	1.000	scrambled	5	3	15	central	canonical	canonical	0.639
366.000	1.000	scrambled	5	2	6	central	canonical	canonical	0.785
368.000	1.000	scrambled	5	1	20	central	canonical	canonical	0.759
370.000	1.000	scrambled	5	1	2	central	canonical	canonical	0.708
372.000	1.000	scrambled	5	1	1	central	canonical	canonical	0.769
378.000	1.000	scrambled	5	3	13	central	canonical	canonical	0.670
382.000	1.000	scrambled	5	1	21	central	canonical	canonical	0.688
386.000	1.000	scrambled	5	2	9	central	canonical	canonical	0.673
388.000	1.000	scrambled	5	3	11	boundary	canonical	canonical	0.760
394.000	1.000	scrambled	5	1	18	boundary	canonical	canonical	0.679
398.000	1.000	scrambled	5	2	7	central	canonical	canonical	0.664
400.000	1.000	scrambled	5	2	10	boundary	canonical	canonical	0.776
404.000	1.000	scrambled	5	3	17	boundary	canonical	canonical	0.702
408.000	1.000	scrambled	5	3	16	central	canonical	canonical	0.656
412.000	1.000	scrambled	5	3	14	central	canonical	canonical	0.671
418.000	1.000	scrambled	5	2	5	central	canonical	canonical	0.667
422.000	1.000	scrambled	5	2	4	boundary	canonical	canonical	0.705
424.000	1.000	structured	6	2	9	central	canonical	canonical	0.985
426.000	1.000	structured	6	2	5	central	canonical	canonical	0.726
428.000	1.000	structured	6	2	8	central	canonical	canonical	0.855
432.000	1.000	structured	6	2	5	central	rotated	rotated	0.878
436.000	1.000	structured	6	2	6	central	canonical	canonical	0.692
438.000	1.000	structured	6	2	4	boundary	canonical	canonical	0.726
442.000	1.000	structured	6	2	5	central	canonical	canonical	0.852
448.000	1.000	structured	6	2	6	central	canonical	canonical	0.675
452.000	1.000	structured	6	2	8	central	canonical	canonical	0.704
456.000	1.000	structured	6	2	4	boundary	canonical	canonical	0.638
462.000	1.000	structured	6	2	6	central	canonical	canonical	0.729
468.000	1.000	structured	6	2	10	boundary	canonical	canonical	0.840
474.000	1.000	structured	6	2	7	central	canonical	canonical	0.949
480.000	1.000	structured	6	2	10	boundary	rotated	rotated	0.913
486.000	1.000	structured	6	3	11	boundary	canonical	canonical	0.814
490.000	1.000	structured	6	3	14	central	canonical	canonical	0.649
492.000	1.000	structured	6	3	16	central	canonical	canonical	0.695
496.000	1.000	structured	6	3	11	boundary	canonical	canonical	0.574
502.000	1.000	structured	6	3	15	central	canonical	canonical	0.785
506.000	1.000	structured	6	3	17	boundary	canonical	canonical	0.824
508.000	1.000	structured	6	3	15	central	rotated	rotated	0.874
510.000	1.000	structured	7	3	13	central	canonical	canonical	0.737
512.000	1.000	structured	7	3	15	central	rotated	rotated	0.799
514.000	1.000	structured	7	3	12	central	canonical	canonical	0.623
520.000	1.000	structured	7	3	11	boundary	canonical	canonical	0.725
524.000	1.000	structured	7	3	13	central	canonical	canonical	0.614
530.000	1.000	structured	7	3	12	central	canonical	canonical	0.724
532.000	1.000	structured	7	3	14	central	canonical	canonical	0.750
536.000	1.000	structured	7	3	12	central	rotated	rotated	0.923
542.000	1.000	structured	7	3	16	central	canonical	canonical	0.853
546.000	1.000	structured	7	3	15	central	canonical	canonical	0.832
548.000	1.000	structured	7	3	11	boundary	canonical	canonical	0.701
552.000	1.000	structured	7	3	14	central	canonical	canonical	0.657
558.000	1.000	structured	7	3	11	boundary	rotated	rotated	0.803
562.000	1.000	structured	7	3	13	central	canonical	canonical	0.653
564.000	1.000	structured	7	3	16	central	canonical	canonical	0.703
570.000	1.000	structured	7	3	17	boundary	canonical	canonical	0.951
574.000	1.000	structured	7	3	15	central	canonical	canonical	0.682
578.000	1.000	structured	7	3	17	boundary	rotated	rotated	0.880
584.000	1.000	structured	7	3	13	central	canonical	canonical	0.756
588.000	1.000	structured	7	3	14	central	canonical	canonical	0.658
590.000	1.000	structured	7	3	13	central	rotated	rotated	0.936
