onset	duration	trial_type	block	community	object	object_type	orientation	response	response_time
4.000	1.000	structured	1	2	5	central	rotated	rotated	0.981
10.000	1.000	structured	1	2	10	boundary	canonical	canonical	0.847
14.000	1.000	structured	1	2	7	central	canonical	canonical	0.597
18.000	1.000	structured	1	2	8	central	canonical	canonical	0.782
24.000	1.000	structured	1	2	10	boundary	canonical	canonical	0.595
26.000	1.000	structured	1	3	11	boundary	canonical	canonical	0.732
28.000	1.000	structured	1	3	16	central	canonical	canonical	0.616
30.000	1.000	structured	1	3	13	central	canonical	canonical	0.604
36.000	1.000	structured	1	3	14	central	canonical	canonical	0.651
40.000	1.000	structured	1	3	16	central	canonical	canonical	0.631
44.000	1.000	structured	1	3	15	central	canonical	canonical	0.622
48.000	1.000	structured	1	3	11	boundary	canonical	canonical	0.628
52.000	1.000	structured	1	3	13	central	canonical	canonical	0.567
56.000	1.000	structured	1	3	14	central	canonical	canonical	0.668
60.000	1.000	structured	1	3	11	boundary	canonical	canonical	0.581
62.000	1.000	structured	1	3	16	central	canonical	canonical	0.662
64.000	1.000	structured	1	3	11	boundary	rotated	canonical	0.635
68.000	1.000	structured	1	3	16	central	rotated	rotated	0.789
74.000	1.000	structured	1	3	13	central	canonical	canonical	0.630
80.000	1.000	structured	1	3	16	central	rotated	rotated	0.847
82.000	1.000	structured	1	3	15	central	canonical	canonical	0.924
88.000	1.000	structured	2	3	16	central	rotated	rotated	0.778
92.000	1.000	structured	2	3	15	central	rotated	rotated	0.940
96.000	1.000	structured	2	3	14	central	canonical	canonical	0.618
100.000	1.000	structured	2	3	11	boundary	canonical	canonical	0.922
102.000	1.000	structured	2	3	12	central	canonical	canonical	0.717
108.000	1.000	structured	2	3	15	central	canonical	canonical	0.670
112.000	1.000	structured	2	3	14	central	canonical	canonical	0.609
118.000	1.000	structured	2	3	12	central	canonical	canonical	0.658
122.000	1.000	structured	2	3	14	central	rotated	rotated	0.751
128.000	1.000	structured	2	3	13	central	canonical	canonical	0.856
134.000	1.000	structured	2	3	11	boundary	canonical	canonical	0.988
140.000	1.000	structured	2	3	16	central	canonical	canonical	0.818
142.000	1.000	structured	2	3	13	central	canonical	canonical	0.622
146.000	1.000	structured	2	3	16	central	rotated	rotated	0.715
148.000	1.000	structured	2	3	13	central	rotated	canonical	0.613
152.000	1.000	structured	2	3	17	boundary	canonical	canonical	0.614
158.000	1.000	structured	2	3	13	central	rotated	rotated	0.855
162.000	1.000	structured	2	3	16	central	canonical	canonical	0.665
164.000	1.000	structured	2	3	12	central	canonical	canonical	0.651
168.000	1.000	structured	2	3	16	central	rotated	rotated	0.761
170.000	1.000	structured	2	3	15	central	canonical	canonical	0.644
172.000	1.000	scrambled	3	2	8	central	canonical	canonical	0.621
178.000	1.000	scrambled	3	1	18	boundary	canonical	canonical	0.666
184.000	1.000	scrambled	3	1	21	central	canonical	canonical	0.648
188.000	1.000	scrambled	3	2	10	boundary	canonical	canonical	0.685
190.000	1.000	scrambled	3	1	20	central	canonical	canonical	0.668
196.000	1.000	scrambled	3	1	3	boundary	canonical	canonical	0.644
202.000	1.000	scrambled	3	2	5	central	canonical	canonical	0.694
206.000	1.000	scrambled	3	2	9	central	canonical	canonical	0.916
210.000	1.000	scrambled	3	3	17	boundary	canonical	canonical	0.835
214.000	1.000	scrambled	3	3	11	boundary	canonical	canonical	0.688
218.000	1.000	scrambled	3	3	15	central	canonical	canonical	0.778
224.000	1.000	scrambled	3	3	13	central	canonical	canonical	0.838
228.000	1.000	scrambled	3	1	2	central	canonical	canonical	0.618
230.000	1.000	scrambled	3	3	14	central	canonical	canonical	0.675
236.000	1.000	scrambled	3	1	19	central	canonical	canonical	0.690
240.000	1.000	scrambled	3	2	7	central	canonical	canonical	0.652
246.000	1.000	scrambled	3	2	4	boundary	canonical	canonical	0.733
250.000	1.000	scrambled	3	3	16	central	canonical	canonical	0.616
252.000	1.000	scrambled	3	3	12	central	canonical	canonical	0.634
258.000	1.000	scrambled	3	1	1	central	canonical	canonical	0.628
260.000	1.000	scrambled	3	2	6	central	canonical	canonical	0.816
266.000	1.000	structured	4	2	9	central	canonical	canonical	0.740
268.000	1.000	structured	4	2	10	boundary	canonical	canonical	0.614
270.000	1.000	structured	4	3	11	boundary	canonical	canonical	0.559
274.000	1.000	structured	4	2	10	boundary	rotated	canonical	0.640
276.000	1.000	structured	4	2	9	central	canonical	canonical	0.602
282.000	1.000	structured	4	2	7	central	canonical	canonical	0.642
286.000	1.000	structured	4	2	10	boundary	canonical	canonical	0.523
288.000	1.000	structured	4	2	9	central	canonical	canonical	0.572
294.000	1.000	structured	4	2	7	central	canonical	canonical	0.636
296.000	1.000	structured	4	2	4	boundary	canonical	canonical	0.646
302.000	1.000	structured	4	2	9	central	canonical	canonical	0.669
306.000	1.000	structured	4	2	6	central	canonical	canonical	0.762
312.000	1.000	structured	4	2	5	central	canonical	canonical	0.695
316.000	1.000	structured	4	2	7	central	canonical	canonical	0.583
318.000	1.000	structured	4	2	8	central	canonical	canonical	0.860
322.000	1.000	structured	4	2	4	boundary	canonical	canonical	0.573
324.000	1.000	structured	4	2	8	central	rotated	canonical	0.619
326.000	1.000	structured	4	2	9	central	canonical	canonical	0.763
332.000	1.000	structured	4	2	4	boundary	canonical	canonical	0.854
338.000	1.000	structured	4	2	8	central	canonical	canonical	0.714
342.000	1.000	structured	4	2	4	boundary	rotated	rotated	0.896
348.000	1.000	structured	5	2	7	central	canonical	canonical	0.633
354.000	1.000	structured	5	2	10	boundary	canonical	canonical	0.746
356.000	1.000	structured	5	3	11	boundary	canonical	canonical	0.710
360.000	1.000	structured	5	3	13	central	canonical	canonical	0.577
366.000	1.000	structured	5	3	16	central	canonical	canonical	0.669
370.000	1.000	structured	5	3	17	boundary	canonical	canonical	0.838
374.000	1.000	structured	5	3	13	central	canonical	canonical	0.590
380.000	1.000	structured	5	3	12	central	canonical	canonical	0.674
382.000	1.000	structured	5	3	11	boundary	canonical	canonical	0.632
384.000	1.000	structured	5	3	15	central	canonical	canonical	0.570
386.000	1.000	structured	5	3	11	boundary	rotated	rotated	0.819
390.000	1.000	structured	5	3	15	central	rotated	rotated	0.798
392.000	1.000	structured	5	3	16	central	canonical	canonical	0.681
396.000	1.000	structured	5	3	12	central	canonical	canonical	0.619
400.000	1.000	structured	5	3	16	central	rotated	rotated	0.851
402.000	1.000	structured	5	3	13	central	canonical	canonical	0.845
408.000	1.000	structured	5	3	17	boundary	canonical	canonical	0.638
410.000	1.000	structured	5	3	14	central	canonical	canonical	0.655
414.000	1.000	structured	5	3	17	boundary	rotated	rotated	0.716
420.000	1.000	structured	5	1	18	boundary	canonical	canonical	0.633
426.000	1.000	structured	5	1	20	central	canonical	canonical	0.594
430.000	1.000	scrambled	6	3	17	boundary	canonical	canonical	0.637
432.000	1.000	scrambled	6	1	20	central	rotated	rotated	0.991
436.000	1.000	scrambled	6	2	4	boundary	canonical	canonical	0.728
438.000	1.000	scrambled	6	2	7	central	canonical	canonical	0.642
440.000	1.000	scrambled	6	1	3	boundary	canonical	canonical	0.578
444.000	1.000	scrambled	6	3	11	boundary	canonical	canonical	0.666
448.000	1.000	scrambled	6	2	9	central	canonical	canonical	0.586
450.000	1.000	scrambled	6	2	8	central	canonical	canonical	0.656
454.000	1.000	scrambled	6	1	19	central	canonical	canonical	0.782
456.000	1.000	scrambled	6	1	21	central	canonical	canonical	0.622
458.000	1.000	scrambled	6	1	18	boundary	canonical	canonical	0.566
460.000	1.000	scrambled	6	1	1	central	canonical	canonical	0.577
462.000	1.000	scrambled	6	3	12	central	canonical	canonical	0.631
464.000	1.000	scrambled	6	3	14	central	canonical	canonical	0.525
466.000	1.000	scrambled	6	2	5	central	canonical	canonical	0.503
472.000	1.000	scrambled	6	2	6	central	canonical	canonical	0.575
476.000	1.000	scrambled	6	3	15	central	canonical	canonical	0.586
478.000	1.000	scrambled	6	3	16	central	canonical	canonical	0.621
484.000	1.000	scrambled	6	2	10	boundary	canonical	canonical	0.650
490.000	1.000	scrambled	6	3	13	central	canonical	canonical	0.582
496.000	1.000	scrambled	6	1	2	central	canonical	canonical	0.631
502.000	1.000	structured	7	1	18	boundary	canonical	canonical	0.571
508.000	1.000	structured	7	1	20	central	canonical	canonical	0.678
514.000	1.000	structured	7	1	1	central	canonical	canonical	0.591
520.000	1.000	structured	7	1	20	central	rotated	canonical	0.571
526.000	1.000	structured	7	1	21	central	canonical	canonical	0.704
528.000	1.000	structured	7	1	19	central	canonical	canonical	0.602
534.000	1.000	structured	7	1	18	boundary	canonical	canonical	0.614
536.000	1.000	structured	7	1	20	central	canonical	canonical	0.923
538.000	1.000	structured	7	1	2	central	canonical	canonical	0.633
544.000	1.000	structured	7	1	1	central	canonical	canonical	0.591
548.000	1.000	structured	7	1	20	central	canonical	canonical	0.733
552.000	1.000	structured	7	1	19	central	canonical	canonical	0.634
556.000	1.000	structured	7	1	3	boundary	canonical	canonical	0.584
558.000	1.000	structured	7	2	4	boundary	canonical	canonical	0.929
564.000	1.000	structured	7	2	9	central	canonical	canonical	0.656
566.000	1.000	structured	7	2	4	boundary	rotated	rotated	0.985
568.000	1.000	structured	7	1	3	boundary	canonical	canonical	0.786
574.000	1.000	structured	7	1	20	central	canonical	canonical	0.654
578.000	1.000	structured	7	1	1	central	canonical	canonical	0.930
584.000	1.000	structured	7	1	19	central	canonical	canonical	0.799
590.000	1.000	structured	7	1	18	boundary	canonical	canonical	0.549
