onset	duration	trial_type	block	community	object	object_type	orientation	response	response_time
0.000	1.500	structured	1	2	10	boundary	canonical	canonical	1.075
1.500	1.500	structured	1	2	7	central	canonical	canonical	0.878
3.000	1.500	structured	1	2	6	central	canonical	canonical	0.811
4.500	1.500	structured	1	2	10	boundary	canonical	canonical	0.670
6.000	1.500	structured	1	2	9	central	canonical	canonical	0.764
7.500	1.500	structured	1	2	10	boundary	rotated	rotated	1.498
9.000	1.500	structured	1	2	9	central	rotated	rotated	1.489
10.500	1.500	structured	1	2	8	central	canonical	canonical	1.493
12.000	1.500	structured	1	2	10	boundary	canonical	canonical	0.941
13.500	1.500	structured	1	2	7	central	canonical	canonical	0.659
15.000	1.500	structured	1	2	4	boundary	canonical	canonical	1.094
16.500	1.500	structured	1	2	5	central	canonical	canonical	0.929
18.000	1.500	structured	1	2	9	central	canonical	canonical	0.684
19.500	1.500	structured	1	2	5	central	rotated	rotated	0.902
21.000	1.500	structured	1	2	8	central	canonical	canonical	0.795
22.500	1.500	structured	1	2	9	central	canonical	canonical	0.641
24.000	1.500	structured	1	2	6	central	canonical	canonical	0.639
25.500	1.500	structured	1	2	8	central	canonical	canonical	0.768
27.000	1.500	structured	1	2	9	central	canonical	canonical	0.582
28.500	1.500	structured	1	2	4	boundary	canonical	canonical	0.777
30.000	1.500	structured	1	2	9	central	rotated	rotated	0.960
31.500	1.500	structured	1	2	5	central	canonical	canonical	0.713
33.000	1.500	structured	1	2	10	boundary	canonical	canonical	0.675
34.500	1.500	structured	1	2	6	central	canonical	canonical	0.675
36.000	1.500	structured	1	2	9	central	canonical	canonical	0.650
37.500	1.500	structured	1	2	4	boundary	canonical	canonical	0.697
39.000	1.500	structured	1	2	8	central	canonical	canonical	0.607
40.500	1.500	structured	1	2	7	central	canonical	canonical	0.667
42.000	1.500	structured	1	2	8	central	rotated	rotated	0.999
43.500	1.500	structured	1	2	6	central	canonical	canonical	0.862
45.000	1.500	structured	1	2	5	central	canonical	canonical	0.974
46.500	1.500	structured	1	2	7	central	canonical	canonical	0.874
48.000	1.500	structured	1	2	9	central	canonical	canonical	0.650
49.500	1.500	structured	1	2	8	central	canonical	canonical	0.691
51.000	1.500	structured	1	2	10	boundary	canonical	canonical	0.753
52.500	1.500	structured	1	2	9	central	canonical	canonical	0.599
54.000	1.500	structured	1	2	6	central	canonical	canonical	0.525
55.500	1.500	structured	1	2	9	central	rotated	rotated	0.763
57.000	1.500	structured	1	2	8	central	canonical	canonical	0.646
58.500	1.500	structured	1	2	7	central	canonical	canonical	0.735
60.000	1.500	structured	1	2	8	central	rotated	rotated	0.997
61.500	1.500	structured	1	2	5	central	canonical	canonical	0.695
63.000	1.500	structured	1	2	9	central	canonical	canonical	0.768
64.500	1.500	structured	1	2	7	central	canonical	canonical	0.626
66.000	1.500	structured	1	2	5	central	canonical	canonical	0.822
67.500	1.500	structured	1	2	10	boundary	canonical	canonical	0.599
69.000	1.500	structured	1	2	9	central	canonical	canonical	0.699
70.500	1.500	structured	1	2	4	boundary	canonical	canonical	0.722
72.000	1.500	structured	1	2	8	central	canonical	canonical	0.759
73.500	1.500	structured	1	2	7	central	canonical	canonical	0.611
75.000	1.500	structured	1	2	10	boundary	canonical	canonical	0.673
76.500	1.500	structured	1	2	6	central	canonical	canonical	0.728
78.000	1.500	structured	1	2	5	central	canonical	canonical	0.754
79.500	1.500	structured	1	2	10	boundary	canonical	canonical	0.652
81.000	1.500	structured	1	2	5	central	rotated	rotated	0.780
82.500	1.500	structured	1	2	7	central	canonical	canonical	0.669
84.000	1.500	structured	1	2	5	central	rotated	rotated	0.883
85.500	1.500	structured	1	2	10	boundary	canonical	canonical	0.687
87.000	1.500	structured	1	2	9	central	canonical	canonical	0.615
88.500	1.500	structured	1	2	7	central	canonical	canonical	0.676
90.000	1.500	structured	1	2	5	central	canonical	canonical	0.859
91.500	1.500	structured	1	2	10	boundary	canonical	canonical	0.772
93.000	1.500	structured	1	2	6	central	canonical	canonical	0.707
94.500	1.500	structured	1	2	10	boundary	rotated	rotated	0.739
96.000	1.500	structured	1	2	9	central	canonical	canonical	0.690
97.500	1.500	structured	1	2	4	boundary	canonical	canonical	0.794
99.000	1.500	structured	1	2	7	central	canonical	canonical	0.679
100.500	1.500	structured	1	2	6	central	canonical	canonical	0.604
102.000	1.500	structured	1	2	7	central	rotated	rotated	0.852
103.500	1.500	structured	1	2	6	central	rotated	rotated	1.030
105.000	1.500	structured	1	2	10	boundary	canonical	canonical	0.821
106.500	1.500	structured	1	2	6	central	rotated	rotated	0.954
108.000	1.500	structured	1	2	4	boundary	canonical	canonical	0.755
109.500	1.500	structured	1	2	9	central	canonical	canonical	0.656
111.000	1.500	structured	1	2	5	central	canonical	canonical	0.804
112.500	1.500	structured	1	2	9	central	rotated	rotated	0.933
114.000	1.500	structured	1	2	6	central	canonical	canonical	0.963
115.500	1.500	structured	1	2	9	central	rotated	canonical	0.834
117.000	1.500	structured	1	2	4	boundary	canonical	canonical	0.674
118.500	1.500	structured	1	2	9	central	rotated	rotated	0.794
120.000	1.500	structured	1	2	10	boundary	canonical	canonical	0.715
121.500	1.500	structured	1	2	5	central	canonical	canonical	0.995
123.000	1.500	structured	1	2	9	central	canonical	canonical	0.954
124.500	1.500	structured	1	2	4	boundary	canonical	canonical	0.824
126.000	1.500	structured	1	2	8	central	canonical	canonical	0.812
127.500	1.500	structured	1	2	6	central	canonical	canonical	0.906
129.000	1.500	structured	1	2	9	central	canonical	canonical	0.728
130.500	1.500	structured	1	2	10	boundary	canonical	canonical	0.633
132.000	1.500	structured	1	2	9	central	rotated	rotated	1.330
133.500	1.500	structured	1	2	8	central	canonical	canonical	0.967
135.000	1.500	structured	1	2	4	boundary	canonical	canonical	0.863
136.500	1.500	structured	1	1	3	boundary	canonical	canonical	0.922
138.000	1.500	structured	1	1	20	central	canonical	canonical	0.727
139.500	1.500	structured	1	1	18	boundary	canonical	canonical	0.684
141.000	1.500	structured	1	1	19	central	canonical	canonical	0.672
142.500	1.500	structured	1	1	20	central	canonical	canonical	0.671
144.000	1.500	structured	1	1	18	boundary	canonical	canonical	0.578
145.500	1.500	structured	1	1	19	central	canonical	canonical	0.624
147.000	1.500	structured	1	1	1	central	canonical	canonical	0.605
148.500	1.500	structured	1	1	21	central	canonical	canonical	0.701
150.000	1.500	structured	1	1	1	central	rotated	rotated	0.757
151.500	1.500	structured	1	1	21	central	rotated	rotated	0.791
153.000	1.500	structured	1	1	2	central	canonical	canonical	0.733
154.500	1.500	structured	1	1	19	central	canonical	canonical	0.699
156.000	1.500	structured	1	1	2	central	rotated	rotated	0.818
157.500	1.500	structured	1	1	19	central	rotated	rotated	1.050
159.000	1.500	structured	1	1	3	boundary	canonical	canonical	0.691
160.500	1.500	structured	1	1	21	central	canonical	canonical	0.807
162.000	1.500	structured	1	1	19	central	canonical	canonical	0.737
163.500	1.500	structured	1	1	18	boundary	canonical	canonical	0.759
165.000	1.500	structured	1	1	19	central	rotated	rotated	0.905
166.500	1.500	structured	1	1	20	central	canonical	canonical	0.792
168.000	1.500	structured	1	1	1	central	canonical	canonical	0.670
169.500	1.500	structured	1	1	3	boundary	canonical	canonical	0.751
171.000	1.500	structured	1	1	2	central	canonical	canonical	0.917
172.500	1.500	structured	1	1	19	central	canonical	canonical	0.738
174.000	1.500	structured	1	1	3	boundary	canonical	canonical	0.794
175.500	1.500	structured	1	1	20	central	canonical	canonical	0.613
177.000	1.500	structured	1	1	21	central	canonical	canonical	0.688
178.500	1.500	structured	1	1	1	central	canonical	canonical	0.755
180.000	1.500	structured	1	1	19	central	canonical	canonical	0.785
181.500	1.500	structured	1	1	2	central	canonical	canonical	0.696
183.000	1.500	structured	1	1	21	central	canonical	canonical	0.595
184.500	1.500	structured	1	1	19	central	canonical	canonical	0.644
186.000	1.500	structured	1	1	2	central	canonical	canonical	0.627
187.500	1.500	structured	1	1	1	central	canonical	canonical	0.665
189.000	1.500	structured	1	1	20	central	canonical	canonical	0.683
190.500	1.500	structured	1	1	18	boundary	canonical	canonical	0.692
192.000	1.500	structured	1	1	2	central	canonical	canonical	0.600
193.500	1.500	structured	1	1	1	central	canonical	canonical	0.774
195.000	1.500	structured	1	1	20	central	canonical	canonical	0.977
196.500	1.500	structured	1	1	19	central	canonical	canonical	0.726
198.000	1.500	structured	1	1	2	central	canonical	canonical	0.708
199.500	1.500	structured	1	1	18	boundary	canonical	canonical	0.594
201.000	1.500	structured	1	1	1	central	canonical	canonical	0.754
202.500	1.500	structured	1	1	19	central	canonical	canonical	0.696
204.000	1.500	structured	1	1	18	boundary	canonical	canonical	0.580
205.500	1.500	structured	1	1	1	central	canonical	canonical	0.695
207.000	1.500	structured	1	1	18	boundary	rotated	rotated	0.906
208.500	1.500	structured	1	1	1	central	rotated	rotated	0.950
210.000	1.500	structured	1	1	2	central	canonical	canonical	0.726
211.500	1.500	structured	1	1	18	boundary	canonical	canonical	0.842
213.000	1.500	structured	1	1	19	central	canonical	canonical	0.664
214.500	1.500	structured	1	1	3	boundary	canonical	canonical	0.652
216.000	1.500	structured	1	1	20	central	canonical	canonical	0.514
217.500	1.500	structured	1	1	19	central	canonical	canonical	0.636
219.000	1.500	structured	1	1	18	boundary	canonical	canonical	0.586
220.500	1.500	structured	1	1	1	central	canonical	canonical	0.589
222.000	1.500	structured	1	1	21	central	canonical	canonical	0.690
223.500	1.500	structured	1	1	20	central	canonical	canonical	0.625
225.000	1.500	structured	1	1	1	central	canonical	canonical	0.749
226.500	1.500	structured	1	1	3	boundary	canonical	canonical	0.710
228.000	1.500	structured	1	1	2	central	canonical	canonical	0.785
229.500	1.500	structured	1	1	20	central	canonical	canonical	0.560
231.000	1.500	structured	1	1	2	central	rotated	rotated	0.713
232.500	1.500	structured	1	1	20	central	rotated	rotated	0.704
234.000	1.500	structured	1	1	2	central	rotated	rotated	0.640
235.500	1.500	structured	1	1	21	central	canonical	canonical	0.613
237.000	1.500	structured	1	1	3	boundary	canonical	canonical	0.692
238.500	1.500	structured	1	1	20	central	canonical	canonical	0.626
240.000	1.500	structured	1	1	2	central	canonical	canonical	0.655
241.500	1.500	structured	1	1	19	central	canonical	canonical	0.608
243.000	1.500	structured	1	1	21	central	canonical	canonical	0.617
244.500	1.500	structured	1	1	20	central	canonical	canonical	0.716
246.000	1.500	structured	1	1	3	boundary	canonical	canonical	0.711
247.500	1.500	structured	1	1	20	central	rotated	rotated	0.773
249.000	1.500	structured	1	1	18	boundary	canonical	canonical	0.802
250.500	1.500	structured	1	1	1	central	canonical	canonical	0.787
252.000	1.500	structured	1	1	20	central	canonical	canonical	0.673
253.500	1.500	structured	1	1	3	boundary	canonical	canonical	0.577
255.000	1.500	structured	1	1	20	central	rotated	rotated	0.671
256.500	1.500	structured	1	1	19	central	canonical	canonical	0.657
258.000	1.500	structured	1	1	20	central	rotated	rotated	0.786
259.500	1.500	structured	1	1	1	central	canonical	canonical	0.737
261.000	1.500	structured	1	1	2	central	canonical	canonical	0.808
262.500	1.500	structured	1	1	18	boundary	canonical	canonical	0.740
264.000	1.500	structured	1	1	2	central	rotated	rotated	0.692
265.500	1.500	structured	1	1	21	central	canonical	canonical	0.617
267.000	1.500	structured	1	1	1	central	canonical	canonical	0.755
268.500	1.500	structured	1	1	21	central	rotated	rotated	0.633
270.000	1.500	structured	1	1	19	central	canonical	canonical	0.732
271.500	1.500	structured	1	1	18	boundary	canonical	canonical	0.768
273.000	1.500	structured	1	3	17	boundary	canonical	canonical	0.922
274.500	1.500	structured	1	1	18	boundary	rotated	rotated	0.821
276.000	1.500	structured	1	1	21	central	canonical	canonical	0.744
277.500	1.500	structured	1	1	1	central	canonical	canonical	0.756
279.000	1.500	structured	1	1	19	central	canonical	canonical	0.818
280.500	1.500	structured	1	1	1	central	rotated	rotated	0.686
282.000	1.500	structured	1	1	19	central	rotated	rotated	0.693
283.500	1.500	structured	1	1	21	central	canonical	canonical	0.639
285.000	1.500	structured	1	1	3	boundary	canonical	canonical	0.677
286.500	1.500	structured	1	1	21	central	rotated	rotated	0.766
288.000	1.500	structured	1	1	1	central	canonical	canonical	0.877
289.500	1.500	structured	1	1	3	boundary	canonical	canonical	0.753
291.000	1.500	structured	1	1	21	central	canonical	canonical	0.885
292.500	1.500	structured	1	1	2	central	canonical	canonical	0.694
294.000	1.500	structured	1	1	21	central	rotated	rotated	0.778
295.500	1.500	structured	1	1	20	central	canonical	canonical	0.995
297.000	1.500	structured	1	1	18	boundary	canonical	canonical	0.823
298.500	1.500	structured	1	1	1	central	canonical	canonical	0.793
300.000	1.500	structured	1	1	21	central	canonical	canonical	0.753
301.500	1.500	structured	1	1	18	boundary	canonical	canonical	0.577
303.000	1.500	structured	1	1	1	central	canonical	canonical	0.744
304.500	1.500	structured	1	1	18	boundary	rotated	rotated	0.992
306.000	1.500	structured	1	3	17	boundary	canonical	canonical	0.608
307.500	1.500	structured	1	3	12	central	canonical	canonical	0.751
309.000	1.500	structured	1	3	11	boundary	canonical	canonical	0.842
310.500	1.500	structured	1	3	12	central	rotated	rotated	0.996
312.000	1.500	structured	1	3	11	boundary	rotated	rotated	0.957
313.500	1.500	structured	1	3	13	central	canonical	canonical	1.072
315.000	1.500	structured	1	3	12	central	canonical	canonical	0.745
316.500	1.500	structured	1	3	13	central	rotated	rotated	0.790
318.000	1.500	structured	1	3	11	boundary	canonical	canonical	1.125
319.500	1.500	structured	1	2	10	boundary	canonical	canonical	0.882
321.000	1.500	structured	1	2	5	central	canonical	canonical	1.037
322.500	1.500	structured	1	2	7	central	canonical	canonical	0.696
324.000	1.500	structured	1	2	4	boundary	canonical	canonical	0.816
325.500	1.500	structured	1	2	6	central	canonical	canonical	0.656
327.000	1.500	structured	1	2	8	central	canonical	canonical	0.797
328.500	1.500	structured	1	2	5	central	canonical	canonical	0.804
330.000	1.500	structured	1	2	7	central	canonical	canonical	0.736
331.500	1.500	structured	1	2	4	boundary	canonical	canonical	0.723
333.000	1.500	structured	1	1	3	boundary	canonical	canonical	0.724
334.500	1.500	structured	1	1	20	central	canonical	canonical	0.691
336.000	1.500	structured	1	1	19	central	canonical	canonical	0.498
337.500	1.500	structured	1	1	18	boundary	canonical	canonical	0.629
339.000	1.500	structured	1	1	1	central	canonical	canonical	0.657
340.500	1.500	structured	1	1	19	central	canonical	canonical	0.604
342.000	1.500	structured	1	1	18	boundary	canonical	canonical	0.561
343.500	1.500	structured	1	1	1	central	canonical	canonical	0.655
345.000	1.500	structured	1	1	20	central	canonical	canonical	0.686
346.500	1.500	structured	1	1	19	central	canonical	canonical	0.564
348.000	1.500	structured	1	1	21	central	canonical	canonical	0.556
349.500	1.500	structured	1	1	1	central	canonical	canonical	0.620
351.000	1.500	structured	1	1	2	central	canonical	canonical	0.834
352.500	1.500	structured	1	1	19	central	canonical	canonical	0.531
354.000	1.500	structured	1	1	1	central	canonical	canonical	0.649
355.500	1.500	structured	1	1	18	boundary	canonical	canonical	0.720
357.000	1.500	structured	1	1	21	central	canonical	canonical	0.667
358.500	1.500	structured	1	1	18	boundary	rotated	canonical	0.873
360.000	1.500	structured	1	1	19	central	canonical	canonical	0.666
361.500	1.500	structured	1	1	20	central	canonical	canonical	0.660
363.000	1.500	structured	1	1	3	boundary	canonical	canonical	0.781
364.500	1.500	structured	1	1	19	central	canonical	canonical	0.645
366.000	1.500	structured	1	1	3	boundary	rotated	rotated	0.771
367.500	1.500	structured	1	2	4	boundary	canonical	canonical	0.650
369.000	1.500	structured	1	2	6	central	canonical	canonical	0.708
370.500	1.500	structured	1	2	5	central	canonical	canonical	0.632
372.000	1.500	structured	1	2	6	central	rotated	rotated	0.742
373.500	1.500	structured	1	2	5	central	rotated	rotated	0.891
375.000	1.500	structured	1	2	10	boundary	canonical	canonical	0.637
376.500	1.500	structured	1	2	7	central	canonical	canonical	0.564
378.000	1.500	structured	1	2	4	boundary	canonical	canonical	0.609
379.500	1.500	structured	1	2	7	central	rotated	rotated	1.126
381.000	1.500	structured	1	2	5	central	canonical	canonical	0.724
382.500	1.500	structured	1	2	8	central	canonical	canonical	0.713
384.000	1.500	structured	1	2	4	boundary	canonical	canonical	0.688
385.500	1.500	structured	1	2	7	central	canonical	canonical	0.536
387.000	1.500	structured	1	2	4	boundary	rotated	rotated	1.001
388.500	1.500	structured	1	2	9	central	canonical	canonical	0.824
390.000	1.500	structured	1	2	8	central	canonical	canonical	0.615
391.500	1.500	structured	1	2	10	boundary	canonical	canonical	0.694
393.000	1.500	structured	1	2	7	central	canonical	canonical	0.740
394.500	1.500	structured	1	2	5	central	canonical	canonical	1.200
396.000	1.500	structured	1	2	4	boundary	canonical	canonical	0.658
397.500	1.500	structured	1	2	9	central	canonical	canonical	0.700
399.000	1.500	structured	1	2	7	central	canonical	canonical	0.621
400.500	1.500	structured	1	2	8	central	canonical	canonical	0.688
402.000	1.500	structured	1	2	9	central	canonical	canonical	0.636
403.500	1.500	structured	1	2	4	boundary	canonical	canonical	0.843
405.000	1.500	structured	1	2	9	central	rotated	rotated	0.874
406.500	1.500	structured	1	2	6	central	canonical	canonical	0.885
408.000	1.500	structured	1	2	8	central	canonical	canonical	0.705
409.500	1.500	structured	1	2	6	central	rotated	rotated	1.358
411.000	1.500	structured	1	2	4	boundary	canonical	canonical	0.650
412.500	1.500	structured	1	2	6	central	rotated	rotated	0.864
414.000	1.500	structured	1	2	9	central	canonical	canonical	0.698
415.500	1.500	structured	1	2	5	central	canonical	canonical	0.638
417.000	1.500	structured	1	2	6	central	canonical	canonical	0.670
418.500	1.500	structured	1	2	8	central	canonical	canonical	0.630
420.000	1.500	structured	1	2	6	central	rotated	rotated	0.654
421.500	1.500	structured	1	2	9	central	canonical	canonical	0.613
423.000	1.500	structured	1	2	8	central	canonical	canonical	0.632
424.500	1.500	structured	1	2	9	central	rotated	rotated	0.771
426.000	1.500	structured	1	2	5	central	canonical	canonical	0.741
427.500	1.500	structured	1	2	8	central	canonical	canonical	0.654
429.000	1.500	structured	1	2	6	central	canonical	canonical	0.944
430.500	1.500	structured	1	2	7	central	canonical	canonical	0.680
432.000	1.500	structured	1	2	10	boundary	canonical	canonical	0.630
433.500	1.500	structured	1	2	6	central	canonical	canonical	0.724
435.000	1.500	structured	1	2	10	boundary	rotated	rotated	0.726
436.500	1.500	structured	1	3	11	boundary	canonical	canonical	0.817
438.000	1.500	structured	1	3	13	central	canonical	canonical	0.847
439.500	1.500	structured	1	3	15	central	canonical	canonical	0.660
441.000	1.500	structured	1	3	17	boundary	canonical	canonical	0.640
442.500	1.500	structured	1	3	12	central	canonical	canonical	0.590
444.000	1.500	structured	1	3	11	boundary	canonical	canonical	0.651
445.500	1.500	structured	1	3	12	central	rotated	rotated	0.742
447.000	1.500	structured	1	3	13	central	canonical	canonical	0.908
448.500	1.500	structured	1	3	15	central	canonical	canonical	0.996
450.000	1.500	structured	1	3	17	boundary	canonical	canonical	0.941
451.500	1.500	structured	1	3	13	central	canonical	canonical	0.811
453.000	1.500	structured	1	3	17	boundary	rotated	rotated	0.855
454.500	1.500	structured	1	3	16	central	canonical	canonical	0.898
456.000	1.500	structured	1	3	15	central	canonical	canonical	0.775
457.500	1.500	structured	1	3	17	boundary	canonical	canonical	0.635
459.000	1.500	structured	1	3	12	central	canonical	canonical	0.766
460.500	1.500	structured	1	3	17	boundary	rotated	rotated	0.840
462.000	1.500	structured	1	3	12	central	rotated	rotated	0.743
463.500	1.500	structured	1	3	16	central	canonical	canonical	0.644
465.000	1.500	structured	1	3	13	central	canonical	canonical	0.716
466.500	1.500	structured	1	3	15	central	canonical	canonical	0.571
468.000	1.500	structured	1	3	17	boundary	canonical	canonical	0.667
469.500	1.500	structured	1	3	13	central	canonical	canonical	0.644
471.000	1.500	structured	1	3	16	central	canonical	canonical	0.708
