onset	duration	trial_type	block	community	object	object_type	orientation	response	response_time
0.000	1.500	structured	1	2	6	central	canonical	n/a	n/a
1.500	1.500	structured	1	2	4	boundary	canonical	canonical	1.482
3.000	1.500	structured	1	2	6	central	rotated	rotated	1.496
4.500	1.500	structured	1	2	7	central	canonical	canonical	0.945
6.000	1.500	structured	1	2	9	central	canonical	rotated	1.428
7.500	1.500	structured	1	2	7	central	rotated	rotated	1.334
9.000	1.500	structured	1	2	6	central	canonical	canonical	1.084
10.500	1.500	structured	1	2	9	central	canonical	canonical	1.233
12.000	1.500	structured	1	2	6	central	rotated	rotated	1.132
13.500	1.500	structured	1	2	4	boundary	canonical	canonical	1.053
15.000	1.500	structured	1	1	3	boundary	canonical	canonical	1.164
16.500	1.500	structured	1	2	4	boundary	rotated	rotated	1.121
18.000	1.500	structured	1	2	7	central	canonical	canonical	1.004
19.500	1.500	structured	1	2	8	central	canonical	rotated	1.492
21.000	1.500	structured	1	2	10	boundary	canonical	n/a	n/a
22.500	1.500	structured	1	2	9	central	canonical	canonical	0.169
24.000	1.500	structured	1	2	4	boundary	canonical	canonical	1.289
25.500	1.500	structured	1	2	6	central	canonical	canonical	1.485
27.000	1.500	structured	1	2	9	central	canonical	canonical	1.374
28.500	1.500	structured	1	2	7	central	canonical	canonical	0.936
30.000	1.500	structured	1	2	10	boundary	canonical	n/a	n/a
31.500	1.500	structured	1	2	5	central	canonical	rotated	1.494
33.000	1.500	structured	1	2	4	boundary	canonical	canonical	0.980
34.500	1.500	structured	1	1	3	boundary	canonical	canonical	0.920
36.000	1.500	structured	1	1	19	central	canonical	canonical	0.943
37.500	1.500	structured	1	1	18	boundary	canonical	canonical	1.232
39.000	1.500	structured	1	1	1	central	canonical	canonical	1.178
40.500	1.500	structured	1	1	18	boundary	rotated	rotated	1.311
42.000	1.500	structured	1	1	1	central	rotated	rotated	1.222
43.500	1.500	structured	1	1	2	central	canonical	canonical	1.090
45.000	1.500	structured	1	1	1	central	rotated	rotated	1.118
46.500	1.500	structured	1	1	2	central	rotated	rotated	1.463
48.000	1.500	structured	1	1	19	central	canonical	canonical	1.405
49.500	1.500	structured	1	1	1	central	canonical	canonical	1.269
51.000	1.500	structured	1	1	18	boundary	canonical	canonical	1.151
52.500	1.500	structured	1	1	2	central	canonical	canonical	1.410
54.000	1.500	structured	1	1	18	boundary	rotated	rotated	1.313
55.500	1.500	structured	1	1	19	central	canonical	canonical	1.032
57.000	1.500	structured	1	1	21	central	canonical	canonical	1.485
58.500	1.500	structured	1	1	3	boundary	canonical	canonical	1.453
60.000	1.500	structured	1	1	1	central	canonical	canonical	1.081
61.500	1.500	structured	1	1	18	boundary	canonical	canonical	1.000
63.000	1.500	structured	1	1	21	central	canonical	canonical	0.941
64.500	1.500	structured	1	1	19	central	canonical	canonical	0.844
66.000	1.500	structured	1	1	21	central	rotated	rotated	0.985
67.500	1.500	structured	1	1	2	central	canonical	canonical	0.937
69.000	1.500	structured	1	1	1	central	canonical	canonical	0.939
70.500	1.500	structured	1	1	19	central	canonical	canonical	0.815
72.000	1.500	structured	1	1	21	central	canonical	canonical	0.822
73.500	1.500	structured	1	1	19	central	rotated	rotated	1.013
75.000	1.500	structured	1	1	1	central	canonical	canonical	1.016
76.500	1.500	structured	1	1	2	central	canonical	canonical	0.929
78.000	1.500	structured	1	1	18	boundary	canonical	canonical	1.171
79.500	1.500	structured	1	1	1	central	canonical	canonical	1.012
81.000	1.500	structured	1	1	19	central	canonical	canonical	0.817
82.500	1.500	structured	1	1	18	boundary	canonical	canonical	0.855
84.000	1.500	structured	1	3	17	boundary	canonical	rotated	1.235
85.500	1.500	structured	1	3	15	central	canonical	canonical	0.985
87.000	1.500	structured	1	3	17	boundary	rotated	rotated	0.867
88.500	1.500	structured	1	3	15	central	rotated	rotated	0.994
90.000	1.500	structured	1	3	12	central	canonical	canonical	0.924
91.500	1.500	structured	1	3	11	boundary	canonical	rotated	1.077
93.000	1.500	structured	1	2	10	boundary	canonical	canonical	1.492
94.500	1.500	structured	1	2	7	central	canonical	canonical	0.754
96.000	1.500	structured	1	2	9	central	canonical	canonical	0.871
97.500	1.500	structured	1	2	10	boundary	canonical	canonical	0.978
99.000	1.500	structured	1	2	8	central	canonical	canonical	1.289
100.500	1.500	structured	1	2	4	boundary	canonical	canonical	1.059
102.000	1.500	structured	1	2	6	central	canonical	canonical	1.398
103.500	1.500	structured	1	2	7	central	canonical	canonical	0.798
105.000	1.500	structured	1	2	10	boundary	canonical	canonical	0.871
106.500	1.500	structured	1	2	5	central	canonical	canonical	1.493
108.000	1.500	structured	1	2	10	boundary	rotated	rotated	0.974
109.500	1.500	structured	1	2	9	central	canonical	canonical	0.799
111.000	1.500	structured	1	2	10	boundary	rotated	rotated	1.229
112.500	1.500	structured	1	2	5	central	canonical	n/a	n/a
114.000	1.500	structured	1	2	6	central	canonical	canonical	0.873
115.500	1.500	structured	1	2	4	boundary	canonical	canonical	0.826
117.000	1.500	structured	1	2	7	central	canonical	canonical	0.896
118.500	1.500	structured	1	2	6	central	canonical	canonical	1.212
120.000	1.500	structured	1	2	8	central	canonical	canonical	1.393
121.500	1.500	structured	1	2	5	central	canonical	rotated	1.417
123.000	1.500	structured	1	2	7	central	canonical	canonical	0.771
124.500	1.500	structured	1	2	5	central	rotated	rotated	1.065
126.000	1.500	structured	1	2	9	central	canonical	canonical	0.773
127.500	1.500	structured	1	2	8	central	canonical	canonical	0.929
129.000	1.500	structured	1	2	7	central	canonical	canonical	0.839
130.500	1.500	structured	1	2	6	central	canonical	canonical	0.852
132.000	1.500	structured	1	2	9	central	canonical	canonical	0.760
133.500	1.500	structured	1	2	10	boundary	canonical	canonical	0.816
135.000	1.500	structured	1	2	6	central	canonical	n/a	n/a
136.500	1.500	structured	1	2	8	central	canonical	canonical	0.905
138.000	1.500	structured	1	2	4	boundary	canonical	canonical	0.993
139.500	1.500	structured	1	2	6	central	canonical	canonical	0.806
141.000	1.500	structured	1	2	5	central	canonical	rotated	1.206
142.500	1.500	structured	1	2	6	central	rotated	rotated	1.111
144.000	1.500	structured	1	2	4	boundary	canonical	canonical	0.880
145.500	1.500	structured	1	2	6	central	rotated	rotated	1.115
147.000	1.500	structured	1	2	5	central	canonical	n/a	n/a
148.500	1.500	structured	1	2	7	central	canonical	canonical	0.622
150.000	1.500	structured	1	2	10	boundary	canonical	canonical	1.037
151.500	1.500	structured	1	2	6	central	canonical	canonical	0.952
153.000	1.500	structured	1	2	8	central	canonical	canonical	0.919
154.500	1.500	structured	1	2	5	central	canonical	canonical	1.364
156.000	1.500	structured	1	2	8	central	rotated	rotated	1.086
157.500	1.500	structured	1	2	5	central	rotated	rotated	0.820
159.000	1.500	structured	1	2	6	central	canonical	canonical	0.787
160.500	1.500	structured	1	2	5	central	rotated	rotated	1.105
162.000	1.500	structured	1	2	9	central	canonical	canonical	0.809
163.500	1.500	structured	1	2	8	central	canonical	canonical	1.122
165.000	1.500	structured	1	2	5	central	canonical	n/a	n/a
166.500	1.500	structured	1	2	7	central	canonical	canonical	0.805
168.000	1.500	structured	1	2	4	boundary	canonical	canonical	0.931
169.500	1.500	structured	1	1	3	boundary	canonical	canonical	0.964
171.000	1.500	structured	1	1	19	central	canonical	canonical	0.754
172.500	1.500	structured	1	1	18	boundary	canonical	canonical	0.859
174.000	1.500	structured	1	1	20	central	canonical	n/a	n/a
175.500	1.500	structured	1	1	3	boundary	canonical	canonical	0.646
177.000	1.500	structured	1	2	4	boundary	canonical	canonical	0.895
178.500	1.500	structured	1	2	6	central	canonical	canonical	0.757
180.000	1.500	structured	1	2	10	boundary	canonical	canonical	0.697
181.500	1.500	structured	1	2	5	central	canonical	canonical	1.333
183.000	1.500	structured	1	2	7	central	canonical	canonical	0.849
184.500	1.500	structured	1	2	8	central	canonical	canonical	0.759
186.000	1.500	structured	1	2	6	central	canonical	canonical	0.838
187.500	1.500	structured	1	2	4	boundary	canonical	canonical	0.743
189.000	1.500	structured	1	2	5	central	canonical	canonical	1.278
190.500	1.500	structured	1	2	4	boundary	rotated	rotated	1.034
192.000	1.500	structured	1	2	9	central	canonical	canonical	0.911
193.500	1.500	structured	1	2	6	central	canonical	canonical	0.745
195.000	1.500	structured	1	2	10	boundary	canonical	canonical	0.887
196.500	1.500	structured	1	3	11	boundary	canonical	rotated	1.033
198.000	1.500	structured	1	3	16	central	canonical	n/a	n/a
199.500	1.500	structured	1	3	12	central	canonical	canonical	0.839
201.000	1.500	structured	1	3	16	central	rotated	n/a	n/a
202.500	1.500	structured	1	3	13	central	canonical	n/a	n/a
204.000	1.500	structured	1	3	12	central	canonical	canonical	0.680
205.500	1.500	structured	1	3	17	boundary	canonical	canonical	1.114
207.000	1.500	structured	1	1	18	boundary	canonical	canonical	0.912
208.500	1.500	structured	1	1	21	central	canonical	canonical	0.856
210.000	1.500	structured	1	1	19	central	canonical	canonical	0.748
211.500	1.500	structured	1	1	21	central	rotated	rotated	0.893
213.000	1.500	structured	1	1	18	boundary	canonical	canonical	0.742
214.500	1.500	structured	1	3	17	boundary	canonical	canonical	0.884
216.000	1.500	structured	1	3	12	central	canonical	canonical	0.851
217.500	1.500	structured	1	3	11	boundary	canonical	n/a	n/a
219.000	1.500	structured	1	3	16	central	canonical	canonical	1.060
220.500	1.500	structured	1	3	13	central	canonical	rotated	1.331
222.000	1.500	structured	1	3	16	central	rotated	rotated	1.319
223.500	1.500	structured	1	3	14	central	canonical	rotated	1.464
225.000	1.500	structured	1	3	16	central	rotated	rotated	1.167
226.500	1.500	structured	1	3	13	central	canonical	n/a	n/a
228.000	1.500	structured	1	3	15	central	canonical	canonical	0.726
229.500	1.500	structured	1	3	16	central	canonical	canonical	0.891
231.000	1.500	structured	1	3	15	central	rotated	rotated	0.934
232.500	1.500	structured	1	3	14	central	canonical	canonical	1.313
234.000	1.500	structured	1	3	13	central	canonical	rotated	1.303
235.500	1.500	structured	1	3	11	boundary	canonical	canonical	1.488
237.000	1.500	structured	1	3	16	central	canonical	canonical	0.924
238.500	1.500	structured	1	3	12	central	canonical	canonical	0.769
240.000	1.500	structured	1	3	15	central	canonical	canonical	0.957
241.500	1.500	structured	1	3	12	central	rotated	rotated	1.066
243.000	1.500	structured	1	3	17	boundary	canonical	canonical	1.156
244.500	1.500	structured	1	1	18	boundary	canonical	canonical	0.824
246.000	1.500	structured	1	1	20	central	canonical	canonical	1.168
247.500	1.500	structured	1	1	1	central	canonical	canonical	1.057
249.000	1.500	structured	1	1	18	boundary	canonical	canonical	0.786
250.500	1.500	structured	1	3	17	boundary	canonical	canonical	0.702
252.000	1.500	structured	1	3	14	central	canonical	canonical	1.491
253.500	1.500	structured	1	3	17	boundary	rotated	rotated	0.852
255.000	1.500	structured	1	3	15	central	canonical	canonical	1.130
256.500	1.500	structured	1	3	13	central	canonical	n/a	n/a
258.000	1.500	structured	1	3	16	central	canonical	canonical	0.768
259.500	1.500	structured	1	3	13	central	rotated	rotated	1.345
261.000	1.500	structured	1	3	11	boundary	canonical	canonical	1.359
262.500	1.500	structured	1	3	16	central	canonical	canonical	0.824
264.000	1.500	structured	1	3	12	central	canonical	canonical	0.791
265.500	1.500	structured	1	3	17	boundary	canonical	canonical	0.752
267.000	1.500	structured	1	3	14	central	canonical	rotated	1.108
268.500	1.500	structured	1	3	16	central	canonical	canonical	0.817
270.000	1.500	structured	1	3	13	central	canonical	rotated	1.449
271.500	1.500	structured	1	3	12	central	canonical	canonical	0.721
273.000	1.500	structured	1	3	17	boundary	canonical	canonical	1.037
274.500	1.500	structured	1	3	16	central	canonical	canonical	0.754
276.000	1.500	structured	1	3	11	boundary	canonical	n/a	n/a
277.500	1.500	structured	1	3	12	central	canonical	canonical	0.707
279.000	1.500	structured	1	3	15	central	canonical	canonical	0.774
280.500	1.500	structured	1	3	14	central	canonical	rotated	1.125
282.000	1.500	structured	1	3	16	central	canonical	canonical	0.744
283.500	1.500	structured	1	3	15	central	canonical	canonical	0.676
285.000	1.500	structured	1	3	16	central	rotated	rotated	1.024
286.500	1.500	structured	1	3	12	central	canonical	canonical	0.767
288.000	1.500	structured	1	3	15	central	canonical	canonical	0.801
289.500	1.500	structured	1	3	12	central	rotated	rotated	0.967
291.000	1.500	structured	1	3	17	boundary	canonical	canonical	0.862
292.500	1.500	structured	1	1	18	boundary	canonical	canonical	0.823
294.000	1.500	structured	1	1	2	central	canonical	canonical	0.972
295.500	1.500	structured	1	1	19	central	canonical	canonical	0.738
297.000	1.500	structured	1	1	18	boundary	canonical	canonical	0.632
298.500	1.500	structured	1	1	2	central	canonical	canonical	0.662
300.000	1.500	structured	1	1	19	central	canonical	canonical	0.613
301.500	1.500	structured	1	1	3	boundary	canonical	canonical	0.817
303.000	1.500	structured	1	1	20	central	canonical	canonical	0.779
304.500	1.500	structured	1	1	3	boundary	rotated	rotated	0.961
306.000	1.500	structured	1	1	2	central	canonical	canonical	0.820
307.500	1.500	structured	1	1	21	central	canonical	canonical	0.777
309.000	1.500	structured	1	1	18	boundary	canonical	canonical	0.769
310.500	1.500	structured	1	1	20	central	canonical	canonical	0.676
312.000	1.500	structured	1	1	18	boundary	rotated	rotated	1.065
313.500	1.500	structured	1	1	1	central	canonical	canonical	1.039
315.000	1.500	structured	1	1	20	central	canonical	canonical	1.413
316.500	1.500	structured	1	1	3	boundary	canonical	canonical	0.943
318.000	1.500	structured	1	1	2	central	canonical	canonical	0.787
319.500	1.500	structured	1	1	3	boundary	rotated	rotated	0.844
321.000	1.500	structured	1	1	21	central	canonical	canonical	0.975
322.500	1.500	structured	1	1	19	central	canonical	canonical	0.806
324.000	1.500	structured	1	1	1	central	canonical	canonical	1.008
325.500	1.500	structured	1	1	21	central	canonical	canonical	0.829
327.000	1.500	structured	1	1	1	central	rotated	rotated	0.960
328.500	1.500	structured	1	1	19	central	canonical	canonical	0.780
330.000	1.500	structured	1	1	3	boundary	canonical	canonical	0.858
331.500	1.500	structured	1	1	1	central	canonical	canonical	0.832
333.000	1.500	structured	1	1	20	central	canonical	canonical	0.853
334.500	1.500	structured	1	1	2	central	canonical	canonical	0.790
336.000	1.500	structured	1	1	19	central	canonical	canonical	0.851
337.500	1.500	structured	1	1	1	central	canonical	canonical	0.888
339.000	1.500	structured	1	1	20	central	canonical	canonical	0.699
340.500	1.500	structured	1	1	18	boundary	canonical	canonical	1.160
342.000	1.500	structured	1	1	2	central	canonical	canonical	0.871
343.500	1.500	structured	1	1	19	central	canonical	canonical	0.806
345.000	1.500	structured	1	1	21	central	canonical	canonical	0.656
346.500	1.500	structured	1	1	3	boundary	canonical	canonical	0.745
348.000	1.500	structured	1	2	4	boundary	canonical	canonical	0.821
349.500	1.500	structured	1	2	5	central	canonical	canonical	1.444
351.000	1.500	structured	1	2	4	boundary	rotated	rotated	1.012
352.500	1.500	structured	1	2	5	central	rotated	rotated	0.936
354.000	1.500	structured	1	2	4	boundary	rotated	rotated	1.024
355.500	1.500	structured	1	2	8	central	canonical	rotated	1.206
357.000	1.500	structured	1	2	10	boundary	canonical	canonical	1.495
358.500	1.500	structured	1	2	8	central	rotated	rotated	1.046
360.000	1.500	structured	1	2	4	boundary	canonical	canonical	0.914
361.500	1.500	structured	1	2	6	central	canonical	canonical	1.058
363.000	1.500	structured	1	2	10	boundary	canonical	canonical	0.862
364.500	1.500	structured	1	2	7	central	canonical	canonical	0.828
366.000	1.500	structured	1	2	9	central	canonical	rotated	0.952
367.500	1.500	structured	1	2	5	central	canonical	canonical	1.490
369.000	1.500	structured	1	2	8	central	canonical	canonical	0.930
370.500	1.500	structured	1	2	9	central	canonical	canonical	0.815
372.000	1.500	structured	1	2	4	boundary	canonical	canonical	0.718
373.500	1.500	structured	1	2	9	central	rotated	rotated	1.020
375.000	1.500	structured	1	2	5	central	canonical	canonical	1.092
376.500	1.500	structured	1	2	7	central	canonical	canonical	0.874
378.000	1.500	structured	1	2	5	central	rotated	rotated	0.868
379.500	1.500	structured	1	2	9	central	canonical	canonical	1.208
381.000	1.500	structured	1	2	6	central	canonical	canonical	0.851
382.500	1.500	structured	1	2	8	central	canonical	canonical	1.087
384.000	1.500	structured	1	2	10	boundary	canonical	canonical	0.996
385.500	1.500	structured	1	2	6	central	canonical	canonical	0.762
387.000	1.500	structured	1	2	9	central	canonical	canonical	0.896
388.500	1.500	structured	1	2	4	boundary	canonical	canonical	0.734
390.000	1.500	structured	1	2	6	central	canonical	canonical	0.652
391.500	1.500	structured	1	2	5	central	canonical	canonical	1.168
393.000	1.500	structured	1	2	6	central	rotated	rotated	0.970
394.500	1.500	structured	1	2	4	boundary	canonical	canonical	0.743
396.000	1.500	structured	1	2	9	central	canonical	canonical	1.035
397.500	1.500	structured	1	2	10	boundary	canonical	canonical	0.703
399.000	1.500	structured	1	2	8	central	canonical	canonical	0.864
400.500	1.500	structured	1	2	4	boundary	canonical	canonical	0.852
402.000	1.500	structured	1	2	9	central	canonical	canonical	0.836
403.500	1.500	structured	1	2	7	central	canonical	canonical	0.760
405.000	1.500	structured	1	2	5	central	canonical	canonical	0.942
406.500	1.500	structured	1	2	9	central	canonical	canonical	1.009
408.000	1.500	structured	1	2	4	boundary	canonical	canonical	0.707
409.500	1.500	structured	1	2	5	central	canonical	canonical	1.058
411.000	1.500	structured	1	2	6	central	canonical	canonical	0.771
412.500	1.500	structured	1	2	8	central	canonical	canonical	1.113
414.000	1.500	structured	1	2	6	central	rotated	rotated	1.138
415.500	1.500	structured	1	2	4	boundary	canonical	canonical	1.136
417.000	1.500	structured	1	2	8	central	canonical	canonical	1.006
418.500	1.500	structured	1	2	5	central	canonical	canonical	0.887
420.000	1.500	structured	1	2	10	boundary	canonical	canonical	0.722
421.500	1.500	structured	1	2	9	central	canonical	canonical	0.694
423.000	1.500	structured	1	2	8	central	canonical	canonical	1.242
424.500	1.500	structured	1	2	4	boundary	canonical	canonical	0.860
426.000	1.500	structured	1	2	7	central	canonical	canonical	0.711
427.500	1.500	structured	1	2	5	central	canonical	canonical	0.927
429.000	1.500	structured	1	2	9	central	canonical	canonical	0.816
430.500	1.500	structured	1	2	5	central	rotated	rotated	0.840
432.000	1.500	structured	1	2	8	central	canonical	canonical	0.953
433.500	1.500	structured	1	2	6	central	canonical	canonical	0.746
435.000	1.500	structured	1	2	5	central	canonical	canonical	1.063
436.500	1.500	structured	1	2	7	central	canonical	canonical	0.692
438.000	1.500	structured	1	2	10	boundary	canonical	canonical	0.730
439.500	1.500	structured	1	2	5	central	canonical	canonical	1.499
441.000	1.500	structured	1	2	10	boundary	rotated	rotated	0.863
442.500	1.500	structured	1	2	9	central	canonical	canonical	0.765
444.000	1.500	structured	1	2	6	central	canonical	canonical	0.755
445.500	1.500	structured	1	2	7	central	canonical	canonical	0.719
447.000	1.500	structured	1	2	4	boundary	canonical	canonical	0.813
448.500	1.500	structured	1	2	6	central	canonical	canonical	0.770
450.000	1.500	structured	1	2	9	central	canonical	canonical	0.922
451.500	1.500	structured	1	2	5	central	canonical	canonical	0.855
453.000	1.500	structured	1	2	10	boundary	canonical	canonical	0.690
454.500	1.500	structured	1	2	5	central	rotated	rotated	0.828
456.000	1.500	structured	1	2	10	boundary	rotated	rotated	0.958
457.500	1.500	structured	1	2	8	central	canonical	canonical	0.841
459.000	1.500	structured	1	2	10	boundary	rotated	rotated	0.798
460.500	1.500	structured	1	3	11	boundary	canonical	canonical	1.468
462.000	1.500	structured	1	2	10	boundary	rotated	rotated	0.899
463.500	1.500	structured	1	2	5	central	canonical	canonical	1.130
465.000	1.500	structured	1	2	6	central	canonical	canonical	0.797
466.500	1.500	structured	1	2	10	boundary	canonical	canonical	0.860
468.000	1.500	structured	1	2	6	central	rotated	rotated	0.880
469.500	1.500	structured	1	2	9	central	canonical	canonical	0.778
471.000	1.500	structured	1	2	5	central	canonical	canonical	0.975
