onset	duration	trial_type	block	community	object	object_type	orientation	response	response_time
4.000	1.000	structured	1	3	17	boundary	canonical	canonical	0.884
8.000	1.000	structured	1	3	12	central	rotated	rotated	0.927
14.000	1.000	structured	1	3	16	central	canonical	canonical	0.800
20.000	1.000	structured	1	3	15	central	canonical	canonical	0.692
22.000	1.000	structured	1	3	13	central	canonical	canonical	0.778
24.000	1.000	structured	1	3	12	central	canonical	rotated	0.767
28.000	1.000	structured	1	3	11	boundary	canonical	canonical	0.731
34.000	1.000	structured	1	3	15	central	canonical	canonical	0.710
40.000	1.000	structured	1	3	16	central	canonical	canonical	0.634
44.000	1.000	structured	1	3	13	central	canonical	canonical	0.618
48.000	1.000	structured	1	3	15	central	canonical	canonical	0.643
50.000	1.000	structured	1	3	14	central	canonical	canonical	0.674
54.000	1.000	structured	1	3	12	central	canonical	rotated	0.991
56.000	1.000	structured	1	3	16	central	canonical	canonical	0.791
60.000	1.000	structured	1	3	14	central	canonical	canonical	0.740
64.000	1.000	structured	1	3	11	boundary	canonical	canonical	0.731
68.000	1.000	structured	1	3	16	central	canonical	canonical	0.728
72.000	1.000	structured	1	3	14	central	canonical	canonical	0.667
78.000	1.000	structured	1	3	17	boundary	canonical	canonical	0.721
84.000	1.000	structured	1	3	12	central	canonical	canonical	0.803
86.000	1.000	structured	1	3	11	boundary	canonical	canonical	0.734
92.000	1.000	structured	2	3	12	central	rotated	rotated	0.848
98.000	1.000	structured	2	3	16	central	canonical	canonical	0.939
104.000	1.000	structured	2	3	11	boundary	canonical	canonical	0.760
108.000	1.000	structured	2	3	12	central	canonical	canonical	0.736
112.000	1.000	structured	2	3	13	central	canonical	canonical	0.683
114.000	1.000	structured	2	3	14	central	canonical	canonical	0.742
120.000	1.000	structured	2	3	15	central	canonical	canonical	0.740
122.000	1.000	structured	2	3	16	central	canonical	canonical	0.732
124.000	1.000	structured	2	3	14	central	canonical	canonical	0.717
126.000	1.000	structured	2	3	15	central	canonical	canonical	0.749
128.000	1.000	structured	2	3	16	central	canonical	canonical	0.711
132.000	1.000	structured	2	3	13	central	canonical	canonical	0.747
136.000	1.000	structured	2	3	14	central	canonical	canonical	0.639
142.000	1.000	structured	2	3	16	central	canonical	canonical	0.798
144.000	1.000	structured	2	3	14	central	rotated	rotated	0.987
150.000	1.000	structured	2	3	17	boundary	canonical	canonical	0.727
154.000	1.000	structured	2	1	18	boundary	canonical	canonical	0.765
156.000	1.000	structured	2	1	20	central	canonical	rotated	0.993
158.000	1.000	structured	2	1	2	central	canonical	canonical	0.874
160.000	1.000	structured	2	1	3	boundary	canonical	canonical	0.849
164.000	1.000	structured	2	2	4	boundary	canonical	canonical	0.910
170.000	1.000	scrambled	3	3	15	central	canonical	canonical	0.753
172.000	1.000	scrambled	3	3	17	boundary	canonical	canonical	0.763
176.000	1.000	scrambled	3	2	8	central	canonical	canonical	0.707
180.000	1.000	scrambled	3	2	10	boundary	canonical	canonical	0.759
182.000	1.000	scrambled	3	1	2	central	canonical	canonical	0.820
188.000	1.000	scrambled	3	1	19	central	canonical	canonical	0.854
190.000	1.000	scrambled	3	2	6	central	canonical	canonical	0.875
192.000	1.000	scrambled	3	2	4	boundary	canonical	n/a	n/a
194.000	1.000	scrambled	3	1	21	central	canonical	canonical	0.988
198.000	1.000	scrambled	3	3	12	central	canonical	canonical	0.860
204.000	1.000	scrambled	3	2	5	central	canonical	canonical	0.954
208.000	1.000	scrambled	3	3	13	central	canonical	canonical	0.749
210.000	1.000	scrambled	3	2	9	central	canonical	canonical	0.768
216.000	1.000	scrambled	3	1	3	boundary	canonical	canonical	0.603
218.000	1.000	scrambled	3	3	11	boundary	canonical	canonical	0.711
220.000	1.000	scrambled	3	1	20	central	canonical	canonical	0.831
226.000	1.000	scrambled	3	2	7	central	canonical	canonical	0.720
230.000	1.000	scrambled	3	3	14	central	canonical	canonical	0.739
234.000	1.000	scrambled	3	3	16	central	canonical	canonical	0.801
240.000	1.000	scrambled	3	1	1	central	canonical	canonical	0.855
242.000	1.000	scrambled	3	1	18	boundary	canonical	canonical	0.790
246.000	1.000	structured	4	3	17	boundary	canonical	canonical	0.708
250.000	1.000	structured	4	3	16	central	canonical	canonical	0.754
256.000	1.000	structured	4	3	14	central	canonical	canonical	0.688
262.000	1.000	structured	4	3	16	central	rotated	rotated	0.939
264.000	1.000	structured	4	3	11	boundary	canonical	canonical	0.769
266.000	1.000	structured	4	3	16	central	rotated	rotated	0.995
272.000	1.000	structured	4	3	14	central	canonical	canonical	0.765
274.000	1.000	structured	4	3	12	central	canonical	canonical	0.971
278.000	1.000	structured	4	3	17	boundary	canonical	canonical	0.702
280.000	1.000	structured	4	3	13	central	canonical	canonical	0.710
282.000	1.000	structured	4	3	17	boundary	rotated	rotated	0.844
288.000	1.000	structured	4	3	16	central	canonical	canonical	0.822
290.000	1.000	structured	4	3	14	central	canonical	canonical	0.723
292.000	1.000	structured	4	3	12	central	canonical	canonical	0.721
298.000	1.000	structured	4	3	13	central	canonical	canonical	0.696
300.000	1.000	structured	4	3	11	boundary	canonical	canonical	0.746
306.000	1.000	structured	4	3	16	central	canonical	canonical	0.743
312.000	1.000	structured	4	3	17	boundary	canonical	canonical	0.994
318.000	1.000	structured	4	3	16	central	rotated	rotated	0.947
322.000	1.000	structured	4	3	12	central	canonical	canonical	0.951
326.000	1.000	structured	4	3	13	central	canonical	canonical	0.703
332.000	1.000	structured	5	3	17	boundary	canonical	canonical	0.618
336.000	1.000	structured	5	3	15	central	canonical	canonical	0.690
340.000	1.000	structured	5	3	13	central	canonical	canonical	0.796
344.000	1.000	structured	5	3	14	central	canonical	canonical	0.747
346.000	1.000	structured	5	3	17	boundary	canonical	canonical	0.724
352.000	1.000	structured	5	3	14	central	rotated	rotated	0.923
358.000	1.000	structured	5	3	12	central	canonical	canonical	0.991
364.000	1.000	structured	5	3	16	central	canonical	canonical	0.692
366.000	1.000	structured	5	3	15	central	canonical	canonical	0.761
372.000	1.000	structured	5	3	17	boundary	canonical	canonical	0.670
378.000	1.000	structured	5	1	18	boundary	canonical	canonical	0.780
382.000	1.000	structured	5	1	2	central	canonical	canonical	0.693
384.000	1.000	structured	5	1	21	central	canonical	canonical	0.656
390.000	1.000	structured	5	1	3	boundary	canonical	canonical	0.756
392.000	1.000	structured	5	1	20	central	canonical	canonical	0.808
396.000	1.000	structured	5	1	2	central	canonical	canonical	0.759
402.000	1.000	structured	5	1	3	boundary	canonical	canonical	0.659
404.000	1.000	structured	5	1	20	central	canonical	canonical	0.797
408.000	1.000	structured	5	1	2	central	canonical	n/a	n/a
410.000	1.000	structured	5	1	18	boundary	canonical	canonical	0.679
416.000	1.000	structured	5	1	1	central	canonical	canonical	0.711
422.000	1.000	scrambled	6	2	7	central	canonical	canonical	0.737
426.000	1.000	scrambled	6	1	3	boundary	canonical	canonical	0.740
428.000	1.000	scrambled	6	2	10	boundary	canonical	canonical	0.685
430.000	1.000	scrambled	6	1	20	central	canonical	canonical	0.871
434.000	1.000	scrambled	6	1	18	boundary	canonical	canonical	0.565
440.000	1.000	scrambled	6	1	19	central	canonical	canonical	0.573
446.000	1.000	scrambled	6	3	16	central	canonical	canonical	0.681
452.000	1.000	scrambled	6	2	8	central	canonical	canonical	0.658
456.000	1.000	scrambled	6	3	13	central	canonical	canonical	0.644
462.000	1.000	scrambled	6	1	21	central	canonical	canonical	0.827
464.000	1.000	scrambled	6	3	12	central	canonical	canonical	0.830
468.000	1.000	scrambled	6	3	11	boundary	canonical	canonical	0.763
470.000	1.000	scrambled	6	2	9	central	canonical	canonical	0.907
474.000	1.000	scrambled	6	2	4	boundary	canonical	canonical	0.894
478.000	1.000	scrambled	6	1	2	central	canonical	canonical	0.716
480.000	1.000	scrambled	6	1	1	central	canonical	canonical	0.737
484.000	1.000	scrambled	6	2	5	central	canonical	canonical	0.664
490.000	1.000	scrambled	6	3	17	boundary	canonical	canonical	0.750
494.000	1.000	scrambled	6	3	15	central	canonical	canonical	0.662
500.000	1.000	scrambled	6	2	6	central	canonical	canonical	0.756
502.000	1.000	scrambled	6	3	14	central	canonical	canonical	0.734
504.000	1.000	structured	7	3	13	central	canonical	canonical	0.863
506.000	1.000	structured	7	3	11	boundary	canonical	canonical	0.834
512.000	1.000	structured	7	2	10	boundary	canonical	canonical	0.993
514.000	1.000	structured	7	2	6	central	canonical	canonical	0.585
518.000	1.000	structured	7	2	5	central	canonical	canonical	0.585
524.000	1.000	structured	7	2	8	central	canonical	canonical	0.643
528.000	1.000	structured	7	2	6	central	canonical	canonical	0.621
530.000	1.000	structured	7	2	7	central	canonical	canonical	0.661
534.000	1.000	structured	7	2	9	central	canonical	canonical	0.648
540.000	1.000	structured	7	2	8	central	canonical	canonical	0.645
544.000	1.000	structured	7	2	7	central	canonical	canonical	0.576
550.000	1.000	structured	7	2	4	boundary	canonical	canonical	0.782
556.000	1.000	structured	7	2	8	central	canonical	canonical	0.622
558.000	1.000	structured	7	2	10	boundary	canonical	canonical	0.884
562.000	1.000	structured	7	2	5	central	canonical	canonical	0.562
566.000	1.000	structured	7	2	6	central	canonical	canonical	0.606
572.000	1.000	structured	7	2	9	central	canonical	canonical	0.633
578.000	1.000	structured	7	2	5	central	canonical	canonical	0.584
582.000	1.000	structured	7	2	4	boundary	canonical	canonical	0.634
586.000	1.000	structured	7	1	3	boundary	canonical	canonical	0.631
590.000	1.000	structured	7	1	19	central	canonical	canonical	0.655
