onset	duration	trial_type	block	community	object	object_type	orientation	response	response_time
0.000	1.500	structured	1	3	15	central	canonical	canonical	1.480
1.500	1.500	structured	1	3	11	boundary	canonical	canonical	1.279
3.000	1.500	structured	1	3	16	central	canonical	canonical	1.337
4.500	1.500	structured	1	3	15	central	canonical	n/a	n/a
6.000	1.500	structured	1	3	14	central	canonical	canonical	0.263
7.500	1.500	structured	1	3	11	boundary	canonical	canonical	0.989
9.000	1.500	structured	1	3	12	central	canonical	canonical	1.101
10.500	1.500	structured	1	3	15	central	canonical	canonical	1.180
12.000	1.500	structured	1	3	16	central	canonical	canonical	1.137
13.500	1.500	structured	1	3	17	boundary	canonical	rotated	1.274
15.000	1.500	structured	1	3	15	central	canonical	canonical	1.016
16.500	1.500	structured	1	3	12	central	canonical	canonical	0.952
18.000	1.500	structured	1	3	13	central	canonical	n/a	n/a
19.500	1.500	structured	1	3	12	central	rotated	rotated	1.170
21.000	1.500	structured	1	3	17	boundary	canonical	canonical	1.440
22.500	1.500	structured	1	3	15	central	canonical	canonical	1.176
24.000	1.500	structured	1	3	13	central	canonical	rotated	1.264
25.500	1.500	structured	1	3	11	boundary	canonical	canonical	1.031
27.000	1.500	structured	1	3	13	central	rotated	rotated	1.006
28.500	1.500	structured	1	3	16	central	canonical	canonical	1.076
30.000	1.500	structured	1	3	12	central	canonical	canonical	1.379
31.500	1.500	structured	1	3	17	boundary	canonical	canonical	1.369
33.000	1.500	structured	1	3	16	central	canonical	canonical	1.106
34.500	1.500	structured	1	3	15	central	canonical	canonical	0.792
36.000	1.500	structured	1	3	13	central	canonical	rotated	0.840
37.500	1.500	structured	1	3	11	boundary	canonical	canonical	1.029
39.000	1.500	structured	1	3	13	central	rotated	rotated	1.021
40.500	1.500	structured	1	3	16	central	canonical	canonical	0.900
42.000	1.500	structured	1	3	13	central	rotated	rotated	0.915
43.500	1.500	structured	1	3	17	boundary	canonical	n/a	n/a
45.000	1.500	structured	1	3	15	central	canonical	canonical	1.463
46.500	1.500	structured	1	3	17	boundary	rotated	rotated	0.927
48.000	1.500	structured	1	3	16	central	canonical	canonical	0.825
49.500	1.500	structured	1	3	15	central	canonical	canonical	1.062
51.000	1.500	structured	1	3	14	central	canonical	rotated	1.252
52.500	1.500	structured	1	3	12	central	canonical	canonical	0.980
54.000	1.500	structured	1	3	13	central	canonical	n/a	n/a
55.500	1.500	structured	1	3	12	central	rotated	rotated	1.145
57.000	1.500	structured	1	3	17	boundary	canonical	canonical	1.160
58.500	1.500	structured	1	3	16	central	canonical	canonical	1.169
60.000	1.500	structured	1	3	17	boundary	rotated	rotated	0.871
61.500	1.500	structured	1	1	18	boundary	canonical	rotated	1.190
63.000	1.500	structured	1	1	2	central	canonical	rotated	1.324
64.500	1.500	structured	1	1	1	central	canonical	canonical	1.051
66.000	1.500	structured	1	1	21	central	canonical	rotated	1.363
67.500	1.500	structured	1	1	18	boundary	canonical	rotated	1.283
69.000	1.500	structured	1	1	20	central	canonical	rotated	1.394
70.500	1.500	structured	1	1	21	central	canonical	n/a	n/a
72.000	1.500	structured	1	1	1	central	canonical	canonical	0.911
73.500	1.500	structured	1	1	18	boundary	canonical	rotated	1.014
75.000	1.500	structured	1	1	21	central	canonical	rotated	0.997
76.500	1.500	structured	1	1	18	boundary	rotated	rotated	0.844
78.000	1.500	structured	1	1	21	central	rotated	rotated	0.955
79.500	1.500	structured	1	1	18	boundary	rotated	rotated	0.704
81.000	1.500	structured	1	1	21	central	rotated	rotated	0.577
82.500	1.500	structured	1	1	3	boundary	canonical	canonical	1.113
84.000	1.500	structured	1	1	20	central	canonical	canonical	1.318
85.500	1.500	structured	1	1	2	central	canonical	rotated	0.894
87.000	1.500	structured	1	1	19	central	canonical	canonical	1.035
88.500	1.500	structured	1	1	18	boundary	canonical	rotated	0.843
90.000	1.500	structured	1	1	1	central	canonical	canonical	0.889
91.500	1.500	structured	1	1	21	central	canonical	rotated	1.417
93.000	1.500	structured	1	1	3	boundary	canonical	canonical	1.231
94.500	1.500	structured	1	1	1	central	canonical	canonical	0.880
96.000	1.500	structured	1	1	20	central	canonical	canonical	1.398
97.500	1.500	structured	1	1	21	central	canonical	rotated	0.806
99.000	1.500	structured	1	1	19	central	canonical	canonical	0.796
100.500	1.500	structured	1	1	20	central	canonical	canonical	1.173
102.000	1.500	structured	1	1	2	central	canonical	rotated	1.098
103.500	1.500	structured	1	1	1	central	canonical	canonical	0.771
105.000	1.500	structured	1	1	18	boundary	canonical	rotated	0.890
106.500	1.500	structured	1	1	19	central	canonical	canonical	0.758
108.000	1.500	structured	1	1	3	boundary	canonical	rotated	1.423
109.500	1.500	structured	1	2	4	boundary	canonical	rotated	1.470
111.000	1.500	structured	1	2	8	central	canonical	canonical	1.494
112.500	1.500	structured	1	2	9	central	canonical	rotated	1.483
114.000	1.500	structured	1	2	7	central	canonical	rotated	1.058
115.500	1.500	structured	1	2	6	central	canonical	n/a	n/a
117.000	1.500	structured	1	2	7	central	rotated	rotated	1.492
118.500	1.500	structured	1	2	9	central	canonical	canonical	1.065
120.000	1.500	structured	1	2	5	central	canonical	rotated	1.490
121.500	1.500	structured	1	2	8	central	canonical	canonical	0.901
123.000	1.500	structured	1	2	6	central	canonical	canonical	1.342
124.500	1.500	structured	1	2	8	central	rotated	rotated	0.941
126.000	1.500	structured	1	2	9	central	canonical	canonical	1.460
127.500	1.500	structured	1	2	10	boundary	canonical	rotated	1.411
129.000	1.500	structured	1	3	11	boundary	canonical	canonical	0.978
130.500	1.500	structured	1	3	13	central	canonical	rotated	1.243
132.000	1.500	structured	1	3	12	central	canonical	canonical	0.745
133.500	1.500	structured	1	3	17	boundary	canonical	rotated	1.174
135.000	1.500	structured	1	3	12	central	rotated	rotated	1.127
136.500	1.500	structured	1	3	11	boundary	canonical	canonical	0.907
138.000	1.500	structured	1	3	12	central	rotated	rotated	1.140
139.500	1.500	structured	1	3	16	central	canonical	canonical	1.156
141.000	1.500	structured	1	3	17	boundary	canonical	rotated	1.088
142.500	1.500	structured	1	3	12	central	canonical	canonical	0.879
144.000	1.500	structured	1	3	13	central	canonical	rotated	1.224
145.500	1.500	structured	1	3	15	central	canonical	canonical	1.174
147.000	1.500	structured	1	3	11	boundary	canonical	canonical	1.438
148.500	1.500	structured	1	2	10	boundary	canonical	canonical	1.421
150.000	1.500	structured	1	3	11	boundary	rotated	rotated	0.836
151.500	1.500	structured	1	3	13	central	canonical	canonical	1.003
153.000	1.500	structured	1	3	15	central	canonical	canonical	1.034
154.500	1.500	structured	1	3	12	central	canonical	canonical	0.823
156.000	1.500	structured	1	3	11	boundary	canonical	rotated	0.848
157.500	1.500	structured	1	3	15	central	canonical	canonical	0.751
159.000	1.500	structured	1	3	11	boundary	rotated	rotated	1.021
160.500	1.500	structured	1	3	13	central	canonical	canonical	0.964
162.000	1.500	structured	1	3	16	central	canonical	rotated	1.116
163.500	1.500	structured	1	3	17	boundary	canonical	rotated	0.962
165.000	1.500	structured	1	3	14	central	canonical	rotated	1.008
166.500	1.500	structured	1	3	11	boundary	canonical	canonical	0.776
168.000	1.500	structured	1	3	12	central	canonical	canonical	0.840
169.500	1.500	structured	1	3	11	boundary	rotated	rotated	0.887
171.000	1.500	structured	1	2	10	boundary	canonical	canonical	0.967
172.500	1.500	structured	1	2	9	central	canonical	rotated	1.109
174.000	1.500	structured	1	2	8	central	canonical	rotated	1.044
175.500	1.500	structured	1	2	5	central	canonical	rotated	0.897
177.000	1.500	structured	1	2	6	central	canonical	canonical	0.938
178.500	1.500	structured	1	2	4	boundary	canonical	canonical	1.009
180.000	1.500	structured	1	2	7	central	canonical	rotated	0.944
181.500	1.500	structured	1	2	5	central	canonical	rotated	0.902
183.000	1.500	structured	1	2	6	central	canonical	canonical	0.999
184.500	1.500	structured	1	2	10	boundary	canonical	canonical	0.796
186.000	1.500	structured	1	2	9	central	canonical	rotated	0.819
187.500	1.500	structured	1	2	10	boundary	rotated	rotated	1.185
189.000	1.500	structured	1	3	11	boundary	canonical	rotated	1.026
190.500	1.500	structured	1	3	14	central	canonical	canonical	1.427
192.000	1.500	structured	1	3	15	central	canonical	canonical	1.050
193.500	1.500	structured	1	3	16	central	canonical	canonical	1.406
195.000	1.500	structured	1	3	11	boundary	canonical	rotated	0.830
196.500	1.500	structured	1	3	15	central	canonical	rotated	1.284
198.000	1.500	structured	1	3	12	central	canonical	canonical	0.859
199.500	1.500	structured	1	3	11	boundary	canonical	rotated	1.284
201.000	1.500	structured	1	3	12	central	rotated	rotated	1.346
202.500	1.500	structured	1	3	13	central	canonical	canonical	1.249
204.000	1.500	structured	1	3	14	central	canonical	canonical	1.321
205.500	1.500	structured	1	3	15	central	canonical	canonical	0.823
207.000	1.500	structured	1	3	11	boundary	canonical	rotated	0.725
208.500	1.500	structured	1	3	16	central	canonical	canonical	1.156
210.000	1.500	structured	1	3	12	central	canonical	canonical	0.925
211.500	1.500	structured	1	3	17	boundary	canonical	rotated	0.866
213.000	1.500	structured	1	3	12	central	rotated	rotated	1.097
214.500	1.500	structured	1	3	17	boundary	rotated	rotated	0.863
216.000	1.500	structured	1	3	12	central	rotated	rotated	0.993
217.500	1.500	structured	1	3	11	boundary	canonical	rotated	1.008
219.000	1.500	structured	1	3	12	central	rotated	canonical	0.695
220.500	1.500	structured	1	3	13	central	canonical	canonical	1.484
222.000	1.500	structured	1	3	12	central	rotated	rotated	0.812
223.500	1.500	structured	1	3	11	boundary	canonical	canonical	1.267
225.000	1.500	structured	1	2	10	boundary	canonical	canonical	1.003
226.500	1.500	structured	1	3	11	boundary	rotated	rotated	0.792
228.000	1.500	structured	1	3	12	central	canonical	canonical	0.847
229.500	1.500	structured	1	3	15	central	canonical	canonical	0.991
231.000	1.500	structured	1	3	14	central	canonical	canonical	1.085
232.500	1.500	structured	1	3	13	central	canonical	canonical	1.117
234.000	1.500	structured	1	3	16	central	canonical	canonical	1.035
235.500	1.500	structured	1	3	13	central	rotated	rotated	0.794
237.000	1.500	structured	1	3	17	boundary	canonical	rotated	0.594
238.500	1.500	structured	1	3	14	central	canonical	rotated	0.847
240.000	1.500	structured	1	3	17	boundary	rotated	rotated	0.784
241.500	1.500	structured	1	3	14	central	rotated	rotated	0.791
243.000	1.500	structured	1	3	16	central	canonical	canonical	1.047
244.500	1.500	structured	1	3	12	central	canonical	canonical	0.899
246.000	1.500	structured	1	3	14	central	canonical	rotated	1.331
247.500	1.500	structured	1	3	17	boundary	canonical	rotated	1.426
249.000	1.500	structured	1	3	13	central	canonical	canonical	1.161
250.500	1.500	structured	1	3	15	central	canonical	canonical	0.936
252.000	1.500	structured	1	3	13	central	rotated	rotated	0.857
253.500	1.500	structured	1	3	17	boundary	canonical	rotated	0.966
255.000	1.500	structured	1	3	14	central	canonical	rotated	1.270
256.500	1.500	structured	1	3	16	central	canonical	canonical	1.022
258.000	1.500	structured	1	3	13	central	canonical	rotated	0.917
259.500	1.500	structured	1	3	15	central	canonical	canonical	0.852
261.000	1.500	structured	1	3	11	boundary	canonical	rotated	1.115
262.500	1.500	structured	1	2	10	boundary	canonical	canonical	0.802
264.000	1.500	structured	1	2	7	central	canonical	rotated	1.334
265.500	1.500	structured	1	2	8	central	canonical	rotated	1.143
267.000	1.500	structured	1	2	4	boundary	canonical	canonical	0.807
268.500	1.500	structured	1	2	9	central	canonical	canonical	0.990
270.000	1.500	structured	1	2	6	central	canonical	canonical	0.828
271.500	1.500	structured	1	2	5	central	canonical	rotated	1.083
273.000	1.500	structured	1	2	7	central	canonical	canonical	1.474
274.500	1.500	structured	1	2	10	boundary	canonical	canonical	0.850
276.000	1.500	structured	1	2	8	central	canonical	rotated	0.896
277.500	1.500	structured	1	2	4	boundary	canonical	canonical	0.751
279.000	1.500	structured	1	1	3	boundary	canonical	canonical	1.246
280.500	1.500	structured	1	1	19	central	canonical	canonical	0.846
282.000	1.500	structured	1	1	1	central	canonical	canonical	0.620
283.500	1.500	structured	1	1	3	boundary	canonical	canonical	1.066
285.000	1.500	structured	1	1	19	central	canonical	canonical	0.851
286.500	1.500	structured	1	1	18	boundary	canonical	rotated	0.728
288.000	1.500	structured	1	1	19	central	rotated	rotated	1.057
289.500	1.500	structured	1	1	1	central	canonical	canonical	1.177
291.000	1.500	structured	1	1	20	central	canonical	canonical	1.014
292.500	1.500	structured	1	1	19	central	canonical	canonical	0.877
294.000	1.500	structured	1	1	20	central	rotated	rotated	0.860
295.500	1.500	structured	1	1	21	central	canonical	rotated	0.956
297.000	1.500	structured	1	1	2	central	canonical	rotated	1.027
298.500	1.500	structured	1	1	21	central	rotated	rotated	0.738
300.000	1.500	structured	1	1	18	boundary	canonical	rotated	1.194
301.500	1.500	structured	1	3	17	boundary	canonical	rotated	1.007
303.000	1.500	structured	1	3	15	central	canonical	canonical	0.861
304.500	1.500	structured	1	3	16	central	canonical	canonical	1.085
306.000	1.500	structured	1	3	14	central	canonical	rotated	0.787
307.500	1.500	structured	1	3	15	central	canonical	rotated	0.691
309.000	1.500	structured	1	3	14	central	rotated	rotated	1.019
310.500	1.500	structured	1	3	13	central	canonical	canonical	0.936
312.000	1.500	structured	1	3	14	central	rotated	rotated	0.784
313.500	1.500	structured	1	3	12	central	canonical	canonical	0.951
315.000	1.500	structured	1	3	17	boundary	canonical	rotated	0.887
316.500	1.500	structured	1	3	14	central	canonical	rotated	0.783
318.000	1.500	structured	1	3	11	boundary	canonical	rotated	0.821
319.500	1.500	structured	1	2	10	boundary	canonical	canonical	0.754
321.000	1.500	structured	1	2	6	central	canonical	canonical	0.762
322.500	1.500	structured	1	2	8	central	canonical	rotated	0.866
324.000	1.500	structured	1	2	7	central	canonical	rotated	1.136
325.500	1.500	structured	1	2	9	central	canonical	rotated	1.351
327.000	1.500	structured	1	2	10	boundary	canonical	canonical	0.790
328.500	1.500	structured	1	2	9	central	rotated	rotated	1.021
330.000	1.500	structured	1	2	8	central	canonical	rotated	1.067
331.500	1.500	structured	1	2	6	central	canonical	canonical	0.691
333.000	1.500	structured	1	2	7	central	canonical	canonical	0.963
334.500	1.500	structured	1	2	6	central	rotated	rotated	0.971
336.000	1.500	structured	1	2	5	central	canonical	canonical	1.097
337.500	1.500	structured	1	2	4	boundary	canonical	canonical	0.776
339.000	1.500	structured	1	2	8	central	canonical	rotated	1.167
340.500	1.500	structured	1	2	10	boundary	canonical	canonical	0.750
342.000	1.500	structured	1	2	9	central	canonical	canonical	1.020
343.500	1.500	structured	1	2	10	boundary	rotated	rotated	1.116
345.000	1.500	structured	1	2	5	central	canonical	canonical	1.449
346.500	1.500	structured	1	2	7	central	canonical	rotated	0.968
348.000	1.500	structured	1	2	6	central	canonical	canonical	0.721
349.500	1.500	structured	1	2	7	central	rotated	rotated	0.816
351.000	1.500	structured	1	2	10	boundary	canonical	canonical	0.846
352.500	1.500	structured	1	2	7	central	rotated	rotated	0.844
354.000	1.500	structured	1	2	4	boundary	canonical	canonical	0.723
355.500	1.500	structured	1	2	9	central	canonical	canonical	1.085
357.000	1.500	structured	1	2	6	central	canonical	canonical	0.962
358.500	1.500	structured	1	2	4	boundary	canonical	canonical	0.795
360.000	1.500	structured	1	2	9	central	canonical	canonical	0.721
361.500	1.500	structured	1	2	6	central	canonical	canonical	0.896
363.000	1.500	structured	1	2	10	boundary	canonical	canonical	1.101
364.500	1.500	structured	1	2	8	central	canonical	rotated	0.933
366.000	1.500	structured	1	2	4	boundary	canonical	canonical	0.677
367.500	1.500	structured	1	1	3	boundary	canonical	n/a	n/a
369.000	1.500	structured	1	2	4	boundary	rotated	rotated	1.028
370.500	1.500	structured	1	2	7	central	canonical	rotated	0.929
372.000	1.500	structured	1	2	6	central	canonical	canonical	0.699
373.500	1.500	structured	1	2	4	boundary	canonical	canonical	0.599
375.000	1.500	structured	1	2	6	central	rotated	rotated	0.767
376.500	1.500	structured	1	2	8	central	canonical	rotated	1.309
378.000	1.500	structured	1	2	5	central	canonical	canonical	0.804
379.500	1.500	structured	1	2	4	boundary	canonical	canonical	0.716
381.000	1.500	structured	1	2	6	central	canonical	canonical	0.651
382.500	1.500	structured	1	2	4	boundary	rotated	rotated	0.889
384.000	1.500	structured	1	1	3	boundary	canonical	rotated	1.255
385.500	1.500	structured	1	1	2	central	canonical	rotated	1.008
387.000	1.500	structured	1	1	21	central	canonical	rotated	1.063
388.500	1.500	structured	1	1	18	boundary	canonical	rotated	0.750
390.000	1.500	structured	1	1	19	central	canonical	canonical	0.797
391.500	1.500	structured	1	1	2	central	canonical	rotated	1.068
393.000	1.500	structured	1	1	1	central	canonical	canonical	0.841
394.500	1.500	structured	1	1	20	central	canonical	canonical	1.162
396.000	1.500	structured	1	1	3	boundary	canonical	canonical	1.312
397.500	1.500	structured	1	1	1	central	canonical	canonical	0.872
399.000	1.500	structured	1	1	19	central	canonical	canonical	0.776
400.500	1.500	structured	1	1	18	boundary	canonical	rotated	0.766
402.000	1.500	structured	1	1	20	central	canonical	canonical	0.908
403.500	1.500	structured	1	1	21	central	canonical	rotated	0.835
405.000	1.500	structured	1	1	18	boundary	canonical	rotated	0.721
406.500	1.500	structured	1	1	19	central	canonical	canonical	0.865
408.000	1.500	structured	1	1	3	boundary	canonical	canonical	1.303
409.500	1.500	structured	1	1	19	central	rotated	rotated	0.705
411.000	1.500	structured	1	1	21	central	canonical	rotated	0.758
412.500	1.500	structured	1	1	18	boundary	canonical	canonical	0.708
414.000	1.500	structured	1	1	1	central	canonical	canonical	0.732
415.500	1.500	structured	1	1	2	central	canonical	canonical	1.138
417.000	1.500	structured	1	1	19	central	canonical	canonical	0.866
418.500	1.500	structured	1	1	3	boundary	canonical	canonical	0.938
420.000	1.500	structured	1	1	19	central	rotated	rotated	0.784
421.500	1.500	structured	1	1	20	central	canonical	canonical	1.183
423.000	1.500	structured	1	1	1	central	canonical	canonical	1.063
424.500	1.500	structured	1	1	20	central	rotated	rotated	0.789
426.000	1.500	structured	1	1	2	central	canonical	rotated	1.053
427.500	1.500	structured	1	1	18	boundary	canonical	rotated	0.937
429.000	1.500	structured	1	1	21	central	canonical	rotated	0.715
430.500	1.500	structured	1	1	2	central	canonical	canonical	1.009
432.000	1.500	structured	1	1	18	boundary	canonical	rotated	0.841
433.500	1.500	structured	1	1	20	central	canonical	canonical	0.863
435.000	1.500	structured	1	1	3	boundary	canonical	canonical	0.990
436.500	1.500	structured	1	1	1	central	canonical	canonical	0.812
438.000	1.500	structured	1	1	3	boundary	rotated	rotated	0.939
439.500	1.500	structured	1	2	4	boundary	canonical	canonical	0.828
441.000	1.500	structured	1	2	7	central	canonical	rotated	0.882
442.500	1.500	structured	1	2	5	central	canonical	canonical	1.040
444.000	1.500	structured	1	2	6	central	canonical	canonical	0.814
445.500	1.500	structured	1	2	9	central	canonical	canonical	1.110
447.000	1.500	structured	1	2	5	central	canonical	canonical	0.935
448.500	1.500	structured	1	2	9	central	rotated	rotated	0.798
450.000	1.500	structured	1	2	10	boundary	canonical	canonical	0.828
451.500	1.500	structured	1	2	5	central	canonical	canonical	0.987
453.000	1.500	structured	1	2	7	central	canonical	rotated	0.762
454.500	1.500	structured	1	2	10	boundary	canonical	canonical	0.986
456.000	1.500	structured	1	2	9	central	canonical	canonical	0.975
457.500	1.500	structured	1	2	5	central	canonical	canonical	0.864
459.000	1.500	structured	1	2	7	central	canonical	canonical	0.933
460.500	1.500	structured	1	2	8	central	canonical	rotated	1.054
462.000	1.500	structured	1	2	4	boundary	canonical	canonical	0.746
463.500	1.500	structured	1	2	9	central	canonical	canonical	0.908
465.000	1.500	structured	1	2	7	central	canonical	canonical	0.946
466.500	1.500	structured	1	2	4	boundary	canonical	canonical	0.682
468.000	1.500	structured	1	2	6	central	canonical	canonical	0.833
469.500	1.500	structured	1	2	7	central	canonical	canonical	0.896
471.000	1.500	structured	1	2	4	boundary	canonical	canonical	0.804
