onset	duration	trial_type	path_type	community	object	object_type	response	response_time
0.000	1.500	structured	structured	3	15	central	1	1.049
1.500	1.500	structured	structured	3	17	boundary	1	0.847
3.000	1.500	structured	structured	3	12	central	0	n/a
4.500	1.500	structured	structured	3	11	boundary	0	n/a
6.000	1.500	structured	structured	3	13	central	1	0.911
7.500	1.500	structured	structured	3	16	central	1	1.102
9.000	1.500	structured	structured	3	14	central	0	n/a
10.500	1.500	structured	structured	3	11	boundary	0	n/a
12.000	1.500	structured	structured	3	12	central	1	1.497
13.500	1.500	structured	structured	3	16	central	1	0.992
15.000	1.500	structured	structured	3	15	central	0	n/a
16.500	1.500	structured	structured	3	12	central	0	n/a
18.000	1.500	structured	structured	3	17	boundary	1	0.828
19.500	1.500	structured	structured	3	15	central	1	1.061
21.000	1.500	structured	structured	3	13	central	1	0.985
22.500	1.500	structured	structured	3	17	boundary	1	1.032
24.000	1.500	structured	structured	3	12	central	1	1.160
25.500	1.500	structured	structured	3	11	boundary	0	n/a
27.000	1.500	structured	structured	3	15	central	0	n/a
28.500	1.500	structured	structured	3	13	central	1	0.830
30.000	1.500	structured	structured	3	11	boundary	0	n/a
31.500	1.500	hamiltonian	backward	2	10	boundary	1	0.204
33.000	1.500	hamiltonian	backward	2	9	central	0	n/a
34.500	1.500	hamiltonian	backward	2	8	central	0	n/a
36.000	1.500	hamiltonian	backward	2	7	central	1	1.282
37.500	1.500	hamiltonian	backward	2	6	central	0	n/a
39.000	1.500	hamiltonian	backward	2	5	central	1	0.654
40.500	1.500	hamiltonian	backward	2	4	boundary	1	0.823
42.000	1.500	hamiltonian	backward	1	3	boundary	1	0.783
43.500	1.500	hamiltonian	backward	1	2	central	1	1.053
45.000	1.500	hamiltonian	backward	1	1	central	0	n/a
46.500	1.500	hamiltonian	backward	1	21	central	1	0.769
48.000	1.500	hamiltonian	backward	1	20	central	1	0.843
49.500	1.500	hamiltonian	backward	1	19	central	1	0.760
51.000	1.500	hamiltonian	backward	1	18	boundary	1	1.192
52.500	1.500	hamiltonian	backward	3	17	boundary	0	n/a
54.000	1.500	hamiltonian	backward	3	16	central	1	0.710
55.500	1.500	hamiltonian	backward	3	15	central	1	1.371
57.000	1.500	hamiltonian	backward	3	14	central	0	n/a
58.500	1.500	hamiltonian	backward	3	13	central	1	0.705
60.000	1.500	hamiltonian	backward	3	12	central	0	n/a
61.500	1.500	hamiltonian	backward	3	11	boundary	0	n/a
63.000	1.500	structured	structured	3	12	central	0	n/a
64.500	1.500	structured	structured	3	14	central	0	n/a
66.000	1.500	structured	structured	3	11	boundary	0	n/a
67.500	1.500	structured	structured	3	13	central	1	0.707
69.000	1.500	structured	structured	3	17	boundary	1	0.779
70.500	1.500	structured	structured	3	16	central	1	0.952
72.000	1.500	structured	structured	3	15	central	0	n/a
73.500	1.500	structured	structured	3	13	central	1	0.710
75.000	1.500	structured	structured	3	15	central	1	1.022
76.500	1.500	structured	structured	3	16	central	0	n/a
78.000	1.500	structured	structured	3	14	central	0	n/a
79.500	1.500	structured	structured	3	13	central	1	0.828
81.000	1.500	structured	structured	3	16	central	1	1.067
82.500	1.500	structured	structured	3	12	central	0	n/a
84.000	1.500	structured	structured	3	17	boundary	1	0.839
85.500	1.500	structured	structured	3	13	central	1	0.687
87.000	1.500	structured	structured	3	15	central	1	0.949
88.500	1.500	structured	structured	3	14	central	0	n/a
90.000	1.500	structured	structured	3	16	central	0	n/a
91.500	1.500	structured	structured	3	13	central	1	0.803
93.000	1.500	structured	structured	3	15	central	1	0.930
94.500	1.500	hamiltonian	forward	3	16	central	0	n/a
96.000	1.500	hamiltonian	forward	3	17	boundary	1	0.840
97.500	1.500	hamiltonian	forward	1	18	boundary	1	1.381
99.000	1.500	hamiltonian	forward	1	19	central	1	0.780
100.500	1.500	hamiltonian	forward	1	20	central	1	0.789
102.000	1.500	hamiltonian	forward	1	21	central	1	0.860
103.500	1.500	hamiltonian	forward	1	1	central	1	0.779
105.000	1.500	hamiltonian	forward	1	2	central	0	n/a
106.500	1.500	hamiltonian	forward	1	3	boundary	1	0.792
108.000	1.500	hamiltonian	forward	2	4	boundary	1	1.056
109.500	1.500	hamiltonian	forward	2	5	central	1	0.791
111.000	1.500	hamiltonian	forward	2	6	central	1	0.797
112.500	1.500	hamiltonian	forward	2	7	central	0	n/a
114.000	1.500	hamiltonian	forward	2	8	central	1	0.747
115.500	1.500	hamiltonian	forward	2	9	central	0	n/a
117.000	1.500	hamiltonian	forward	2	10	boundary	0	n/a
118.500	1.500	hamiltonian	forward	3	11	boundary	1	0.808
120.000	1.500	hamiltonian	forward	3	12	central	0	n/a
121.500	1.500	hamiltonian	forward	3	13	central	1	0.726
123.000	1.500	hamiltonian	forward	3	14	central	1	1.315
124.500	1.500	hamiltonian	forward	3	15	central	0	n/a
126.000	1.500	structured	structured	3	17	boundary	1	0.755
127.500	1.500	structured	structured	3	14	central	1	1.058
129.000	1.500	structured	structured	3	17	boundary	1	0.695
130.500	1.500	structured	structured	3	15	central	1	0.695
132.000	1.500	structured	structured	3	12	central	1	1.159
133.500	1.500	structured	structured	3	16	central	1	1.470
135.000	1.500	structured	structured	3	13	central	1	0.758
136.500	1.500	structured	structured	3	17	boundary	1	0.882
138.000	1.500	structured	structured	3	12	central	1	0.851
139.500	1.500	structured	structured	3	16	central	0	n/a
141.000	1.500	structured	structured	3	15	central	0	n/a
142.500	1.500	structured	structured	3	17	boundary	1	0.840
144.000	1.500	structured	structured	3	12	central	1	0.687
145.500	1.500	structured	structured	3	17	boundary	1	0.821
147.000	1.500	structured	structured	3	14	central	1	1.149
148.500	1.500	structured	structured	3	12	central	1	1.109
150.000	1.500	structured	structured	3	13	central	1	0.780
151.500	1.500	structured	structured	3	12	central	1	0.769
153.000	1.500	structured	structured	3	11	boundary	0	n/a
154.500	1.500	structured	structured	2	10	boundary	0	n/a
156.000	1.500	structured	structured	2	9	central	0	n/a
157.500	1.500	hamiltonian	backward	2	8	central	0	n/a
159.000	1.500	hamiltonian	backward	2	7	central	1	1.042
160.500	1.500	hamiltonian	backward	2	6	central	0	n/a
162.000	1.500	hamiltonian	backward	2	5	central	1	0.626
163.500	1.500	hamiltonian	backward	2	4	boundary	1	0.728
165.000	1.500	hamiltonian	backward	1	3	boundary	0	n/a
166.500	1.500	hamiltonian	backward	1	2	central	1	0.589
168.000	1.500	hamiltonian	backward	1	1	central	0	n/a
169.500	1.500	hamiltonian	backward	1	21	central	1	0.796
171.000	1.500	hamiltonian	backward	1	20	central	1	1.051
172.500	1.500	hamiltonian	backward	1	19	central	1	0.755
174.000	1.500	hamiltonian	backward	1	18	boundary	1	1.488
175.500	1.500	hamiltonian	backward	3	17	boundary	1	0.055
177.000	1.500	hamiltonian	backward	3	16	central	1	0.871
178.500	1.500	hamiltonian	backward	3	15	central	0	n/a
180.000	1.500	hamiltonian	backward	3	14	central	0	n/a
181.500	1.500	hamiltonian	backward	3	13	central	1	0.843
183.000	1.500	hamiltonian	backward	3	12	central	0	n/a
184.500	1.500	hamiltonian	backward	3	11	boundary	0	n/a
186.000	1.500	hamiltonian	backward	2	10	boundary	1	0.672
187.500	1.500	hamiltonian	backward	2	9	central	0	n/a
189.000	1.500	structured	structured	2	6	central	1	0.926
190.500	1.500	structured	structured	2	8	central	1	0.908
192.000	1.500	structured	structured	2	10	boundary	0	n/a
193.500	1.500	structured	structured	3	11	boundary	1	0.867
195.000	1.500	structured	structured	3	13	central	1	0.739
196.500	1.500	structured	structured	3	16	central	1	0.991
198.000	1.500	structured	structured	3	15	central	0	n/a
199.500	1.500	structured	structured	3	17	boundary	1	0.933
201.000	1.500	structured	structured	3	12	central	0	n/a
202.500	1.500	structured	structured	3	11	boundary	0	n/a
204.000	1.500	structured	structured	3	15	central	1	0.732
205.500	1.500	structured	structured	3	14	central	0	n/a
207.000	1.500	structured	structured	3	16	central	0	n/a
208.500	1.500	structured	structured	3	11	boundary	0	n/a
210.000	1.500	structured	structured	3	16	central	0	n/a
211.500	1.500	structured	structured	3	13	central	1	0.823
213.000	1.500	structured	structured	3	15	central	1	1.489
214.500	1.500	structured	structured	3	17	boundary	1	0.980
216.000	1.500	structured	structured	1	18	boundary	1	0.884
217.500	1.500	structured	structured	1	19	central	1	0.794
219.000	1.500	structured	structured	1	20	central	1	0.874
220.500	1.500	hamiltonian	backward	1	19	central	1	1.000
222.000	1.500	hamiltonian	backward	1	18	boundary	1	0.854
223.500	1.500	hamiltonian	backward	3	17	boundary	1	0.822
225.000	1.500	hamiltonian	backward	3	16	central	1	1.006
226.500	1.500	hamiltonian	backward	3	15	central	0	n/a
228.000	1.500	hamiltonian	backward	3	14	central	0	n/a
229.500	1.500	hamiltonian	backward	3	13	central	1	0.738
231.000	1.500	hamiltonian	backward	3	12	central	1	0.833
232.500	1.500	hamiltonian	backward	3	11	boundary	0	n/a
234.000	1.500	hamiltonian	backward	2	10	boundary	1	0.696
235.500	1.500	hamiltonian	backward	2	9	central	0	n/a
237.000	1.500	hamiltonian	backward	2	8	central	0	n/a
238.500	1.500	hamiltonian	backward	2	7	central	1	0.963
240.000	1.500	hamiltonian	backward	2	6	central	0	n/a
241.500	1.500	hamiltonian	backward	2	5	central	1	0.747
243.000	1.500	hamiltonian	backward	2	4	boundary	1	0.770
244.500	1.500	hamiltonian	backward	1	3	boundary	0	n/a
246.000	1.500	hamiltonian	backward	1	2	central	1	0.679
247.500	1.500	hamiltonian	backward	1	1	central	0	n/a
249.000	1.500	hamiltonian	backward	1	21	central	1	1.485
250.500	1.500	hamiltonian	backward	1	20	central	1	0.949
252.000	1.500	structured	structured	1	21	central	1	0.761
253.500	1.500	structured	structured	1	18	boundary	1	1.057
255.000	1.500	structured	structured	1	20	central	0	n/a
256.500	1.500	structured	structured	1	1	central	1	0.896
258.000	1.500	structured	structured	1	21	central	1	1.117
259.500	1.500	structured	structured	1	2	central	1	0.957
261.000	1.500	structured	structured	1	1	central	0	n/a
262.500	1.500	structured	structured	1	19	central	0	n/a
264.000	1.500	structured	structured	1	20	central	1	0.786
265.500	1.500	structured	structured	1	21	central	1	0.810
267.000	1.500	structured	structured	1	3	boundary	1	1.127
268.500	1.500	structured	structured	2	4	boundary	0	n/a
270.000	1.500	structured	structured	2	6	central	1	0.824
271.500	1.500	structured	structured	2	4	boundary	1	0.821
273.000	1.500	structured	structured	1	3	boundary	1	0.868
274.500	1.500	structured	structured	1	20	central	1	0.786
276.000	1.500	structured	structured	1	21	central	1	1.442
277.500	1.500	structured	structured	1	19	central	1	1.226
279.000	1.500	structured	structured	1	2	central	0	n/a
280.500	1.500	structured	structured	1	21	central	1	0.703
282.000	1.500	structured	structured	1	18	boundary	1	1.071
283.500	1.500	hamiltonian	forward	1	19	central	1	0.835
285.000	1.500	hamiltonian	forward	1	20	central	1	0.845
286.500	1.500	hamiltonian	forward	1	21	central	1	0.708
288.000	1.500	hamiltonian	forward	1	1	central	1	1.323
289.500	1.500	hamiltonian	forward	1	2	central	0	n/a
291.000	1.500	hamiltonian	forward	1	3	boundary	1	0.784
292.500	1.500	hamiltonian	forward	2	4	boundary	1	0.823
294.000	1.500	hamiltonian	forward	2	5	central	1	1.134
295.500	1.500	hamiltonian	forward	2	6	central	1	1.085
297.000	1.500	hamiltonian	forward	2	7	central	0	n/a
298.500	1.500	hamiltonian	forward	2	8	central	1	0.659
300.000	1.500	hamiltonian	forward	2	9	central	0	n/a
301.500	1.500	hamiltonian	forward	2	10	boundary	0	n/a
303.000	1.500	hamiltonian	forward	3	11	boundary	1	0.903
304.500	1.500	hamiltonian	forward	3	12	central	0	n/a
306.000	1.500	hamiltonian	forward	3	13	central	1	0.741
307.500	1.500	hamiltonian	forward	3	14	central	1	0.965
309.000	1.500	hamiltonian	forward	3	15	central	0	n/a
310.500	1.500	hamiltonian	forward	3	16	central	0	n/a
312.000	1.500	hamiltonian	forward	3	17	boundary	1	0.967
313.500	1.500	hamiltonian	forward	1	18	boundary	0	n/a
315.000	1.500	structured	structured	3	17	boundary	0	n/a
316.500	1.500	structured	structured	3	13	central	1	0.781
318.000	1.500	structured	structured	3	11	boundary	1	1.115
319.500	1.500	structured	structured	3	15	central	0	n/a
321.000	1.500	structured	structured	3	11	boundary	0	n/a
322.500	1.500	structured	structured	3	12	central	1	0.874
324.000	1.500	structured	structured	3	13	central	1	1.216
325.500	1.500	structured	structured	3	14	central	1	1.040
327.000	1.500	structured	structured	3	12	central	1	0.919
328.500	1.500	structured	structured	3	17	boundary	1	1.172
330.000	1.500	structured	structured	3	14	central	1	1.260
331.500	1.500	structured	structured	3	12	central	0	n/a
333.000	1.500	structured	structured	3	11	boundary	0	n/a
334.500	1.500	structured	structured	3	15	central	0	n/a
336.000	1.500	structured	structured	3	12	central	1	0.887
337.500	1.500	structured	structured	3	14	central	1	1.359
339.000	1.500	structured	structured	3	11	boundary	0	n/a
340.500	1.500	structured	structured	3	13	central	1	0.861
342.000	1.500	structured	structured	3	16	central	1	0.931
343.500	1.500	structured	structured	3	17	boundary	1	0.882
345.000	1.500	structured	structured	3	15	central	1	0.768
346.500	1.500	hamiltonian	forward	3	16	central	0	n/a
348.000	1.500	hamiltonian	forward	3	17	boundary	1	0.741
349.500	1.500	hamiltonian	forward	1	18	boundary	0	n/a
351.000	1.500	hamiltonian	forward	1	19	central	1	0.725
352.500	1.500	hamiltonian	forward	1	20	central	1	1.026
354.000	1.500	hamiltonian	forward	1	21	central	1	0.890
355.500	1.500	hamiltonian	forward	1	1	central	1	1.249
357.000	1.500	hamiltonian	forward	1	2	central	0	n/a
358.500	1.500	hamiltonian	forward	1	3	boundary	1	0.808
360.000	1.500	hamiltonian	forward	2	4	boundary	1	0.757
361.500	1.500	hamiltonian	forward	2	5	central	1	0.781
363.000	1.500	hamiltonian	forward	2	6	central	1	0.851
364.500	1.500	hamiltonian	forward	2	7	central	0	n/a
366.000	1.500	hamiltonian	forward	2	8	central	1	0.689
367.500	1.500	hamiltonian	forward	2	9	central	0	n/a
369.000	1.500	hamiltonian	forward	2	10	boundary	0	n/a
370.500	1.500	hamiltonian	forward	3	11	boundary	1	0.789
372.000	1.500	hamiltonian	forward	3	12	central	0	n/a
373.500	1.500	hamiltonian	forward	3	13	central	1	0.765
375.000	1.500	hamiltonian	forward	3	14	central	1	0.964
376.500	1.500	hamiltonian	forward	3	15	central	0	n/a
