onset	duration	trial_type	block	community	object	object_type	orientation	response	response_time
0.000	1.500	structured	1	1	1	central	canonical	canonical	0.793
1.500	1.500	structured	1	1	21	central	canonical	canonical	0.695
3.000	1.500	structured	1	1	1	central	rotated	rotated	0.762
4.500	1.500	structured	1	1	19	central	canonical	canonical	0.775
6.000	1.500	structured	1	1	20	central	canonical	canonical	0.689
7.500	1.500	structured	1	1	1	central	canonical	canonical	0.674
9.000	1.500	structured	1	1	2	central	canonical	canonical	0.866
10.500	1.500	structured	1	1	1	central	rotated	rotated	0.879
12.000	1.500	structured	1	1	19	central	canonical	canonical	0.831
13.500	1.500	structured	1	1	3	boundary	canonical	canonical	0.670
15.000	1.500	structured	1	1	21	central	canonical	canonical	0.761
16.500	1.500	structured	1	1	2	central	canonical	canonical	0.672
18.000	1.500	structured	1	1	18	boundary	canonical	canonical	0.816
19.500	1.500	structured	1	1	21	central	canonical	canonical	1.151
21.000	1.500	structured	1	1	2	central	canonical	canonical	0.766
22.500	1.500	structured	1	1	3	boundary	canonical	canonical	0.695
24.000	1.500	structured	1	1	21	central	canonical	canonical	0.767
25.500	1.500	structured	1	1	2	central	canonical	canonical	0.663
27.000	1.500	structured	1	1	21	central	rotated	rotated	0.926
28.500	1.500	structured	1	1	18	boundary	canonical	canonical	0.733
30.000	1.500	structured	1	1	21	central	rotated	rotated	0.870
31.500	1.500	structured	1	1	2	central	canonical	canonical	0.677
33.000	1.500	structured	1	1	3	boundary	canonical	canonical	0.879
34.500	1.500	structured	1	2	4	boundary	canonical	canonical	0.695
36.000	1.500	structured	1	2	6	central	canonical	canonical	0.749
37.500	1.500	structured	1	2	9	central	canonical	canonical	0.702
39.000	1.500	structured	1	2	8	central	canonical	canonical	1.143
40.500	1.500	structured	1	2	4	boundary	canonical	canonical	0.670
42.000	1.500	structured	1	1	3	boundary	canonical	canonical	0.709
43.500	1.500	structured	1	1	2	central	canonical	canonical	0.756
45.000	1.500	structured	1	1	19	central	canonical	canonical	0.653
46.500	1.500	structured	1	1	18	boundary	canonical	canonical	0.709
48.000	1.500	structured	1	1	21	central	canonical	canonical	0.662
49.500	1.500	structured	1	1	3	boundary	canonical	canonical	0.797
51.000	1.500	structured	1	1	19	central	canonical	canonical	0.892
52.500	1.500	structured	1	1	3	boundary	rotated	rotated	1.069
54.000	1.500	structured	1	2	4	boundary	canonical	canonical	0.755
55.500	1.500	structured	1	2	9	central	canonical	canonical	0.686
57.000	1.500	structured	1	2	6	central	canonical	canonical	0.764
58.500	1.500	structured	1	2	9	central	rotated	rotated	0.907
60.000	1.500	structured	1	2	5	central	canonical	canonical	0.779
61.500	1.500	structured	1	2	4	boundary	canonical	canonical	0.708
63.000	1.500	structured	1	2	5	central	rotated	rotated	0.892
64.500	1.500	structured	1	2	6	central	canonical	canonical	0.738
66.000	1.500	structured	1	2	7	central	canonical	canonical	1.004
67.500	1.500	structured	1	2	4	boundary	canonical	canonical	0.692
69.000	1.500	structured	1	2	5	central	canonical	canonical	0.922
70.500	1.500	structured	1	2	6	central	canonical	canonical	0.722
72.000	1.500	structured	1	2	5	central	rotated	rotated	0.954
73.500	1.500	structured	1	2	10	boundary	canonical	canonical	0.795
75.000	1.500	structured	1	3	11	boundary	canonical	canonical	0.682
76.500	1.500	structured	1	3	13	central	canonical	canonical	0.714
78.000	1.500	structured	1	3	16	central	canonical	canonical	0.762
79.500	1.500	structured	1	3	11	boundary	canonical	canonical	1.105
81.000	1.500	structured	1	3	12	central	canonical	canonical	0.770
82.500	1.500	structured	1	3	17	boundary	canonical	canonical	0.792
84.000	1.500	structured	1	3	13	central	canonical	canonical	0.714
85.500	1.500	structured	1	3	11	boundary	canonical	canonical	0.673
87.000	1.500	structured	1	3	14	central	canonical	canonical	0.745
88.500	1.500	structured	1	3	16	central	canonical	canonical	0.889
90.000	1.500	structured	1	3	17	boundary	canonical	canonical	0.608
91.500	1.500	structured	1	3	13	central	canonical	canonical	0.706
93.000	1.500	structured	1	3	14	central	canonical	canonical	0.872
94.500	1.500	structured	1	3	16	central	canonical	canonical	0.672
96.000	1.500	structured	1	3	15	central	canonical	canonical	0.745
97.500	1.500	structured	1	3	14	central	canonical	canonical	0.712
99.000	1.500	structured	1	3	13	central	canonical	canonical	0.743
100.500	1.500	structured	1	3	11	boundary	canonical	canonical	0.753
102.000	1.500	structured	1	3	13	central	rotated	rotated	1.168
103.500	1.500	structured	1	3	15	central	canonical	canonical	0.679
105.000	1.500	structured	1	3	16	central	canonical	canonical	0.808
106.500	1.500	structured	1	3	11	boundary	canonical	canonical	0.655
108.000	1.500	structured	1	2	10	boundary	canonical	canonical	0.703
109.500	1.500	structured	1	2	9	central	canonical	canonical	0.760
111.000	1.500	structured	1	2	7	central	canonical	canonical	0.688
112.500	1.500	structured	1	2	10	boundary	canonical	canonical	0.734
114.000	1.500	structured	1	2	7	central	rotated	canonical	0.600
115.500	1.500	structured	1	2	9	central	canonical	canonical	0.696
117.000	1.500	structured	1	2	8	central	canonical	canonical	0.760
118.500	1.500	structured	1	2	6	central	canonical	canonical	0.632
120.000	1.500	structured	1	2	8	central	rotated	rotated	0.837
121.500	1.500	structured	1	2	10	boundary	canonical	canonical	0.719
123.000	1.500	structured	1	2	9	central	canonical	canonical	0.613
124.500	1.500	structured	1	2	7	central	canonical	canonical	0.773
126.000	1.500	structured	1	2	4	boundary	canonical	canonical	0.678
127.500	1.500	structured	1	2	6	central	canonical	canonical	0.726
129.000	1.500	structured	1	2	7	central	canonical	canonical	0.764
130.500	1.500	structured	1	2	5	central	canonical	canonical	0.596
132.000	1.500	structured	1	2	6	central	canonical	canonical	0.702
133.500	1.500	structured	1	2	4	boundary	canonical	canonical	0.622
135.000	1.500	structured	1	2	5	central	canonical	canonical	0.743
136.500	1.500	structured	1	2	4	boundary	rotated	rotated	0.868
138.000	1.500	structured	1	1	3	boundary	canonical	canonical	0.541
139.500	1.500	structured	1	1	20	central	canonical	canonical	0.539
141.000	1.500	structured	1	1	3	boundary	rotated	rotated	0.844
142.500	1.500	structured	1	1	2	central	canonical	canonical	0.548
144.000	1.500	structured	1	1	3	boundary	rotated	rotated	0.716
145.500	1.500	structured	1	1	21	central	canonical	canonical	0.908
147.000	1.500	structured	1	1	18	boundary	canonical	canonical	0.708
148.500	1.500	structured	1	1	21	central	rotated	rotated	0.835
150.000	1.500	structured	1	1	18	boundary	rotated	rotated	0.900
151.500	1.500	structured	1	1	1	central	canonical	canonical	0.627
153.000	1.500	structured	1	1	2	central	canonical	canonical	0.794
154.500	1.500	structured	1	1	3	boundary	canonical	canonical	0.707
156.000	1.500	structured	1	1	2	central	rotated	rotated	0.907
157.500	1.500	structured	1	1	18	boundary	canonical	canonical	0.603
159.000	1.500	structured	1	3	17	boundary	canonical	canonical	0.682
160.500	1.500	structured	1	3	15	central	canonical	canonical	0.666
162.000	1.500	structured	1	3	14	central	canonical	canonical	0.649
163.500	1.500	structured	1	3	17	boundary	canonical	canonical	0.610
165.000	1.500	structured	1	3	16	central	canonical	canonical	0.626
166.500	1.500	structured	1	3	14	central	canonical	canonical	0.609
168.000	1.500	structured	1	3	13	central	canonical	canonical	0.660
169.500	1.500	structured	1	3	11	boundary	canonical	canonical	0.737
171.000	1.500	structured	1	2	10	boundary	canonical	canonical	0.650
172.500	1.500	structured	1	2	5	central	canonical	canonical	0.562
174.000	1.500	structured	1	2	9	central	canonical	canonical	0.633
175.500	1.500	structured	1	2	4	boundary	canonical	canonical	0.650
177.000	1.500	structured	1	1	3	boundary	canonical	canonical	0.681
178.500	1.500	structured	1	2	4	boundary	rotated	rotated	0.896
180.000	1.500	structured	1	2	5	central	canonical	canonical	0.608
181.500	1.500	structured	1	2	7	central	canonical	canonical	0.712
183.000	1.500	structured	1	2	8	central	canonical	canonical	0.826
184.500	1.500	structured	1	2	5	central	canonical	canonical	0.575
186.000	1.500	structured	1	2	7	central	canonical	canonical	0.600
187.500	1.500	structured	1	2	10	boundary	canonical	canonical	0.562
189.000	1.500	structured	1	2	6	central	canonical	canonical	0.614
190.500	1.500	structured	1	2	9	central	canonical	canonical	0.640
192.000	1.500	structured	1	2	10	boundary	canonical	canonical	0.535
193.500	1.500	structured	1	2	9	central	rotated	rotated	0.920
195.000	1.500	structured	1	2	8	central	canonical	canonical	0.679
196.500	1.500	structured	1	2	9	central	rotated	rotated	0.910
198.000	1.500	structured	1	2	10	boundary	canonical	canonical	0.703
199.500	1.500	structured	1	2	8	central	canonical	canonical	0.703
201.000	1.500	structured	1	2	7	central	canonical	canonical	0.855
202.500	1.500	structured	1	2	6	central	canonical	canonical	0.830
204.000	1.500	structured	1	2	9	central	canonical	canonical	0.806
205.500	1.500	structured	1	2	6	central	rotated	rotated	0.854
207.000	1.500	structured	1	2	7	central	canonical	canonical	0.645
208.500	1.500	structured	1	2	4	boundary	canonical	canonical	0.645
210.000	1.500	structured	1	2	6	central	canonical	canonical	0.597
211.500	1.500	structured	1	2	8	central	canonical	canonical	0.757
213.000	1.500	structured	1	2	4	boundary	canonical	canonical	0.645
214.500	1.500	structured	1	2	9	central	canonical	canonical	0.541
216.000	1.500	structured	1	2	6	central	canonical	canonical	0.541
217.500	1.500	structured	1	2	10	boundary	canonical	canonical	0.573
219.000	1.500	structured	1	2	6	central	rotated	canonical	0.541
220.500	1.500	structured	1	2	8	central	canonical	canonical	0.635
222.000	1.500	structured	1	2	10	boundary	canonical	canonical	0.668
223.500	1.500	structured	1	2	6	central	canonical	rotated	0.644
225.000	1.500	structured	1	2	7	central	canonical	canonical	0.788
226.500	1.500	structured	1	2	5	central	canonical	canonical	0.714
228.000	1.500	structured	1	2	7	central	rotated	rotated	0.836
229.500	1.500	structured	1	2	10	boundary	canonical	canonical	0.627
231.000	1.500	structured	1	2	6	central	canonical	canonical	0.803
232.500	1.500	structured	1	2	4	boundary	canonical	canonical	0.723
234.000	1.500	structured	1	2	6	central	rotated	rotated	0.797
235.500	1.500	structured	1	2	4	boundary	rotated	rotated	0.811
237.000	1.500	structured	1	2	5	central	canonical	canonical	0.772
238.500	1.500	structured	1	2	8	central	canonical	canonical	0.697
240.000	1.500	structured	1	2	7	central	canonical	canonical	0.619
241.500	1.500	structured	1	2	9	central	canonical	canonical	0.618
243.000	1.500	structured	1	2	5	central	canonical	canonical	0.715
244.500	1.500	structured	1	2	9	central	rotated	rotated	0.818
246.000	1.500	structured	1	2	8	central	canonical	canonical	0.737
247.500	1.500	structured	1	2	5	central	canonical	canonical	0.914
249.000	1.500	structured	1	2	7	central	canonical	canonical	0.641
250.500	1.500	structured	1	2	8	central	canonical	canonical	0.960
252.000	1.500	structured	1	2	7	central	rotated	rotated	0.810
253.500	1.500	structured	1	2	9	central	canonical	canonical	0.705
255.000	1.500	structured	1	2	4	boundary	canonical	canonical	0.681
256.500	1.500	structured	1	2	6	central	canonical	canonical	0.783
258.000	1.500	structured	1	2	8	central	canonical	canonical	0.616
259.500	1.500	structured	1	2	6	central	rotated	rotated	0.976
261.000	1.500	structured	1	2	8	central	rotated	rotated	0.776
262.500	1.500	structured	1	2	4	boundary	canonical	canonical	0.815
264.000	1.500	structured	1	2	9	central	canonical	canonical	0.632
265.500	1.500	structured	1	2	6	central	canonical	canonical	0.768
267.000	1.500	structured	1	2	4	boundary	canonical	canonical	0.688
268.500	1.500	structured	1	2	8	central	canonical	canonical	0.613
270.000	1.500	structured	1	2	5	central	canonical	canonical	0.591
271.500	1.500	structured	1	2	10	boundary	canonical	canonical	0.581
273.000	1.500	structured	1	2	6	central	canonical	canonical	0.575
274.500	1.500	structured	1	2	5	central	canonical	canonical	0.600
276.000	1.500	structured	1	2	9	central	canonical	canonical	0.533
277.500	1.500	structured	1	2	4	boundary	canonical	canonical	0.487
279.000	1.500	structured	1	2	8	central	canonical	canonical	0.584
280.500	1.500	structured	1	2	9	central	canonical	canonical	0.510
282.000	1.500	structured	1	2	8	central	rotated	canonical	0.422
283.500	1.500	structured	1	2	5	central	canonical	canonical	0.622
285.000	1.500	structured	1	2	9	central	canonical	canonical	0.566
286.500	1.500	structured	1	2	5	central	rotated	rotated	0.758
288.000	1.500	structured	1	2	6	central	canonical	canonical	0.750
289.500	1.500	structured	1	2	4	boundary	canonical	canonical	0.603
291.000	1.500	structured	1	2	8	central	canonical	canonical	0.598
292.500	1.500	structured	1	2	4	boundary	rotated	rotated	0.884
294.000	1.500	structured	1	2	7	central	canonical	canonical	0.724
295.500	1.500	structured	1	2	6	central	canonical	canonical	0.782
297.000	1.500	structured	1	2	7	central	rotated	rotated	1.004
298.500	1.500	structured	1	2	6	central	rotated	canonical	0.779
300.000	1.500	structured	1	2	4	boundary	canonical	canonical	0.891
301.500	1.500	structured	1	2	8	central	canonical	canonical	0.731
303.000	1.500	structured	1	2	6	central	canonical	canonical	0.842
304.500	1.500	structured	1	2	4	boundary	canonical	canonical	0.643
306.000	1.500	structured	1	2	5	central	canonical	canonical	0.714
307.500	1.500	structured	1	2	8	central	canonical	canonical	0.890
309.000	1.500	structured	1	2	5	central	rotated	rotated	0.850
310.500	1.500	structured	1	2	9	central	canonical	canonical	0.675
312.000	1.500	structured	1	2	7	central	canonical	canonical	0.803
313.500	1.500	structured	1	2	4	boundary	canonical	canonical	0.684
315.000	1.500	structured	1	2	5	central	canonical	canonical	0.689
316.500	1.500	structured	1	2	9	central	canonical	canonical	0.698
318.000	1.500	structured	1	2	4	boundary	canonical	canonical	0.624
319.500	1.500	structured	1	1	3	boundary	canonical	canonical	0.650
321.000	1.500	structured	1	1	21	central	canonical	canonical	1.202
322.500	1.500	structured	1	1	1	central	canonical	canonical	0.682
324.000	1.500	structured	1	1	20	central	canonical	canonical	0.576
325.500	1.500	structured	1	1	3	boundary	canonical	canonical	0.688
327.000	1.500	structured	1	1	21	central	canonical	canonical	0.753
328.500	1.500	structured	1	1	3	boundary	rotated	rotated	0.834
330.000	1.500	structured	1	1	1	central	canonical	canonical	0.609
331.500	1.500	structured	1	1	2	central	canonical	canonical	0.810
333.000	1.500	structured	1	1	20	central	canonical	canonical	0.623
334.500	1.500	structured	1	1	19	central	canonical	canonical	0.711
336.000	1.500	structured	1	1	20	central	rotated	rotated	0.895
337.500	1.500	structured	1	1	3	boundary	canonical	canonical	0.679
339.000	1.500	structured	1	2	4	boundary	canonical	canonical	0.911
340.500	1.500	structured	1	2	5	central	canonical	canonical	0.744
342.000	1.500	structured	1	2	4	boundary	rotated	rotated	0.807
343.500	1.500	structured	1	1	3	boundary	canonical	canonical	0.677
345.000	1.500	structured	1	1	21	central	canonical	canonical	0.823
346.500	1.500	structured	1	1	3	boundary	rotated	rotated	0.869
348.000	1.500	structured	1	1	19	central	canonical	canonical	0.719
349.500	1.500	structured	1	1	20	central	canonical	canonical	0.616
351.000	1.500	structured	1	1	19	central	rotated	rotated	0.765
352.500	1.500	structured	1	1	1	central	canonical	canonical	0.781
354.000	1.500	structured	1	1	21	central	canonical	canonical	0.711
355.500	1.500	structured	1	1	20	central	canonical	canonical	0.693
357.000	1.500	structured	1	1	18	boundary	canonical	canonical	0.693
358.500	1.500	structured	1	1	2	central	canonical	canonical	0.692
360.000	1.500	structured	1	1	20	central	canonical	canonical	0.621
361.500	1.500	structured	1	1	21	central	canonical	canonical	0.724
363.000	1.500	structured	1	1	3	boundary	canonical	canonical	0.691
364.500	1.500	structured	1	1	21	central	rotated	rotated	0.908
366.000	1.500	structured	1	1	2	central	canonical	canonical	0.635
367.500	1.500	structured	1	1	18	boundary	canonical	canonical	0.644
369.000	1.500	structured	1	1	19	central	canonical	canonical	0.725
370.500	1.500	structured	1	1	1	central	canonical	canonical	0.635
372.000	1.500	structured	1	1	18	boundary	canonical	canonical	0.706
373.500	1.500	structured	1	1	2	central	canonical	canonical	0.586
375.000	1.500	structured	1	1	19	central	canonical	canonical	0.563
376.500	1.500	structured	1	1	21	central	canonical	canonical	0.763
378.000	1.500	structured	1	1	18	boundary	canonical	canonical	0.675
379.500	1.500	structured	1	1	21	central	rotated	rotated	0.865
381.000	1.500	structured	1	1	2	central	canonical	canonical	0.546
382.500	1.500	structured	1	1	3	boundary	canonical	canonical	0.529
384.000	1.500	structured	1	1	21	central	canonical	canonical	0.667
385.500	1.500	structured	1	1	3	boundary	rotated	rotated	0.906
387.000	1.500	structured	1	1	20	central	canonical	canonical	0.624
388.500	1.500	structured	1	1	1	central	canonical	canonical	0.569
390.000	1.500	structured	1	1	3	boundary	canonical	canonical	0.560
391.500	1.500	structured	1	1	19	central	canonical	canonical	0.649
393.000	1.500	structured	1	1	2	central	canonical	canonical	0.601
394.500	1.500	structured	1	1	3	boundary	canonical	canonical	0.593
396.000	1.500	structured	1	1	20	central	canonical	canonical	0.561
397.500	1.500	structured	1	1	19	central	canonical	canonical	0.688
399.000	1.500	structured	1	1	3	boundary	canonical	canonical	0.560
400.500	1.500	structured	1	1	1	central	canonical	canonical	0.536
402.000	1.500	structured	1	1	20	central	canonical	canonical	0.543
403.500	1.500	structured	1	1	19	central	canonical	canonical	0.601
405.000	1.500	structured	1	1	18	boundary	canonical	canonical	0.687
406.500	1.500	structured	1	1	19	central	rotated	canonical	0.576
408.000	1.500	structured	1	1	21	central	canonical	canonical	0.849
409.500	1.500	structured	1	1	3	boundary	canonical	canonical	0.662
411.000	1.500	structured	1	1	2	central	canonical	canonical	0.631
412.500	1.500	structured	1	1	19	central	canonical	canonical	0.639
414.000	1.500	structured	1	1	2	central	rotated	rotated	0.856
415.500	1.500	structured	1	1	21	central	canonical	canonical	0.823
417.000	1.500	structured	1	1	2	central	rotated	rotated	0.943
418.500	1.500	structured	1	1	3	boundary	canonical	canonical	0.615
420.000	1.500	structured	1	2	4	boundary	canonical	canonical	0.718
421.500	1.500	structured	1	1	3	boundary	rotated	rotated	0.767
423.000	1.500	structured	1	1	1	central	canonical	canonical	0.663
424.500	1.500	structured	1	1	3	boundary	rotated	rotated	0.870
426.000	1.500	structured	1	1	21	central	canonical	canonical	0.749
427.500	1.500	structured	1	1	20	central	canonical	canonical	0.718
429.000	1.500	structured	1	1	19	central	canonical	canonical	0.692
430.500	1.500	structured	1	1	20	central	rotated	rotated	0.756
432.000	1.500	structured	1	1	18	boundary	canonical	canonical	0.717
433.500	1.500	structured	1	3	17	boundary	canonical	canonical	0.748
435.000	1.500	structured	1	1	18	boundary	rotated	rotated	0.893
436.500	1.500	structured	1	1	2	central	canonical	canonical	0.853
438.000	1.500	structured	1	1	3	boundary	canonical	canonical	0.598
439.500	1.500	structured	1	1	2	central	rotated	rotated	0.836
441.000	1.500	structured	1	1	20	central	canonical	canonical	0.610
442.500	1.500	structured	1	1	1	central	canonical	canonical	0.621
444.000	1.500	structured	1	1	3	boundary	canonical	canonical	0.637
445.500	1.500	structured	1	2	4	boundary	canonical	canonical	0.731
447.000	1.500	structured	1	2	6	central	canonical	canonical	0.762
448.500	1.500	structured	1	2	4	boundary	rotated	rotated	0.841
450.000	1.500	structured	1	1	3	boundary	canonical	canonical	0.581
451.500	1.500	structured	1	1	20	central	canonical	canonical	0.594
453.000	1.500	structured	1	1	1	central	canonical	canonical	0.587
454.500	1.500	structured	1	1	20	central	rotated	rotated	0.922
456.000	1.500	structured	1	1	21	central	canonical	canonical	0.697
457.500	1.500	structured	1	1	1	central	canonical	canonical	0.563
459.000	1.500	structured	1	1	18	boundary	canonical	canonical	0.689
460.500	1.500	structured	1	1	21	central	canonical	rotated	1.065
462.000	1.500	structured	1	1	20	central	canonical	canonical	0.984
463.500	1.500	structured	1	1	1	central	canonical	canonical	0.609
465.000	1.500	structured	1	1	2	central	canonical	canonical	0.754
466.500	1.500	structured	1	1	19	central	canonical	canonical	0.697
468.000	1.500	structured	1	1	2	central	rotated	rotated	0.890
469.500	1.500	structured	1	1	19	central	rotated	rotated	0.831
471.000	1.500	structured	1	1	2	central	rotated	rotated	0.911
