onset	duration	trial_type	block	community	object	object_type	orientation	response	response_time
0.000	1.500	structured	1	1	3	boundary	canonical	canonical	0.713
1.500	1.500	structured	1	1	1	central	canonical	canonical	0.616
3.000	1.500	structured	1	1	18	boundary	canonical	canonical	0.566
4.500	1.500	structured	1	1	2	central	canonical	canonical	0.568
6.000	1.500	structured	1	1	21	central	canonical	canonical	0.541
7.500	1.500	structured	1	1	2	central	rotated	rotated	0.966
9.000	1.500	structured	1	1	3	boundary	canonical	canonical	0.650
10.500	1.500	structured	1	1	1	central	canonical	canonical	0.576
12.000	1.500	structured	1	1	3	boundary	rotated	rotated	0.839
13.500	1.500	structured	1	1	21	central	canonical	canonical	0.609
15.000	1.500	structured	1	1	20	central	canonical	canonical	0.626
16.500	1.500	structured	1	1	19	central	canonical	canonical	0.823
18.000	1.500	structured	1	1	3	boundary	canonical	canonical	0.705
19.500	1.500	structured	1	1	20	central	canonical	canonical	0.590
21.000	1.500	structured	1	1	19	central	canonical	canonical	0.684
22.500	1.500	structured	1	1	20	central	rotated	rotated	0.800
24.000	1.500	structured	1	1	3	boundary	canonical	canonical	0.657
25.500	1.500	structured	1	1	1	central	canonical	canonical	0.614
27.000	1.500	structured	1	1	2	central	canonical	canonical	0.580
28.500	1.500	structured	1	1	21	central	canonical	canonical	0.594
30.000	1.500	structured	1	1	18	boundary	canonical	canonical	0.666
31.500	1.500	structured	1	1	21	central	rotated	rotated	0.892
33.000	1.500	structured	1	1	20	central	canonical	canonical	0.556
34.500	1.500	structured	1	1	21	central	rotated	rotated	0.806
36.000	1.500	structured	1	1	19	central	canonical	canonical	0.641
37.500	1.500	structured	1	1	20	central	canonical	canonical	0.662
39.000	1.500	structured	1	1	18	boundary	canonical	canonical	0.788
40.500	1.500	structured	1	1	20	central	rotated	rotated	0.911
42.000	1.500	structured	1	1	19	central	canonical	canonical	0.668
43.500	1.500	structured	1	1	21	central	canonical	canonical	0.926
45.000	1.500	structured	1	1	2	central	canonical	canonical	0.781
46.500	1.500	structured	1	1	18	boundary	canonical	canonical	0.826
48.000	1.500	structured	1	3	17	boundary	canonical	canonical	0.759
49.500	1.500	structured	1	3	14	central	canonical	canonical	0.797
51.000	1.500	structured	1	3	13	central	canonical	canonical	0.771
52.500	1.500	structured	1	3	12	central	canonical	canonical	0.744
54.000	1.500	structured	1	3	11	boundary	canonical	canonical	0.677
55.500	1.500	structured	1	3	14	central	canonical	canonical	0.606
57.000	1.500	structured	1	3	15	central	canonical	canonical	0.692
58.500	1.500	structured	1	3	16	central	canonical	canonical	0.619
60.000	1.500	structured	1	3	14	central	canonical	canonical	0.720
61.500	1.500	structured	1	3	11	boundary	canonical	canonical	0.675
63.000	1.500	structured	1	3	16	central	canonical	canonical	0.632
64.500	1.500	structured	1	3	13	central	canonical	canonical	0.624
66.000	1.500	structured	1	3	15	central	canonical	canonical	0.622
67.500	1.500	structured	1	3	13	central	rotated	rotated	0.900
69.000	1.500	structured	1	3	11	boundary	canonical	canonical	0.683
70.500	1.500	structured	1	3	12	central	canonical	canonical	0.615
72.000	1.500	structured	1	3	17	boundary	canonical	canonical	0.799
73.500	1.500	structured	1	3	14	central	canonical	canonical	0.669
75.000	1.500	structured	1	3	16	central	canonical	canonical	0.597
76.500	1.500	structured	1	3	12	central	canonical	canonical	0.629
78.000	1.500	structured	1	3	16	central	rotated	rotated	0.800
79.500	1.500	structured	1	3	12	central	rotated	rotated	0.872
81.000	1.500	structured	1	3	13	central	canonical	canonical	0.570
82.500	1.500	structured	1	3	16	central	canonical	canonical	0.608
84.000	1.500	structured	1	3	11	boundary	canonical	canonical	0.649
85.500	1.500	structured	1	3	15	central	canonical	canonical	0.581
87.000	1.500	structured	1	3	17	boundary	canonical	canonical	0.617
88.500	1.500	structured	1	3	12	central	canonical	canonical	0.612
90.000	1.500	structured	1	3	15	central	canonical	canonical	0.658
91.500	1.500	structured	1	3	17	boundary	canonical	canonical	0.525
93.000	1.500	structured	1	3	13	central	canonical	canonical	0.507
94.500	1.500	structured	1	3	15	central	canonical	canonical	0.574
96.000	1.500	structured	1	3	12	central	canonical	canonical	0.740
97.500	1.500	structured	1	3	11	boundary	canonical	canonical	0.603
99.000	1.500	structured	1	2	10	boundary	canonical	canonical	0.729
100.500	1.500	structured	1	2	7	central	canonical	canonical	0.713
102.000	1.500	structured	1	2	9	central	canonical	canonical	0.769
103.500	1.500	structured	1	2	8	central	canonical	canonical	0.739
105.000	1.500	structured	1	2	4	boundary	canonical	canonical	0.733
106.500	1.500	structured	1	1	3	boundary	canonical	canonical	0.711
108.000	1.500	structured	1	1	21	central	canonical	canonical	0.666
109.500	1.500	structured	1	1	20	central	canonical	canonical	0.618
111.000	1.500	structured	1	1	2	central	canonical	canonical	0.636
112.500	1.500	structured	1	1	18	boundary	canonical	canonical	0.645
114.000	1.500	structured	1	1	1	central	canonical	canonical	0.659
115.500	1.500	structured	1	1	2	central	canonical	canonical	0.652
117.000	1.500	structured	1	1	20	central	canonical	canonical	0.641
118.500	1.500	structured	1	1	19	central	canonical	canonical	0.587
120.000	1.500	structured	1	1	1	central	canonical	canonical	0.540
121.500	1.500	structured	1	1	20	central	canonical	canonical	0.688
123.000	1.500	structured	1	1	1	central	rotated	rotated	0.992
124.500	1.500	structured	1	1	3	boundary	canonical	canonical	0.662
126.000	1.500	structured	1	1	21	central	canonical	canonical	0.728
127.500	1.500	structured	1	1	20	central	canonical	canonical	0.717
129.000	1.500	structured	1	1	2	central	canonical	canonical	0.662
130.500	1.500	structured	1	1	20	central	rotated	rotated	0.921
132.000	1.500	structured	1	1	19	central	canonical	canonical	0.551
133.500	1.500	structured	1	1	18	boundary	canonical	canonical	0.646
135.000	1.500	structured	1	1	1	central	canonical	canonical	0.695
136.500	1.500	structured	1	1	21	central	canonical	canonical	0.677
138.000	1.500	structured	1	1	1	central	rotated	rotated	0.874
139.500	1.500	structured	1	1	18	boundary	canonical	canonical	0.621
141.000	1.500	structured	1	3	17	boundary	canonical	canonical	0.661
142.500	1.500	structured	1	3	13	central	canonical	canonical	0.618
144.000	1.500	structured	1	3	17	boundary	rotated	rotated	1.360
145.500	1.500	structured	1	1	18	boundary	canonical	canonical	0.668
147.000	1.500	structured	1	1	2	central	canonical	canonical	0.723
148.500	1.500	structured	1	1	3	boundary	canonical	canonical	0.781
150.000	1.500	structured	1	1	20	central	canonical	canonical	0.622
151.500	1.500	structured	1	1	18	boundary	canonical	canonical	0.656
153.000	1.500	structured	1	3	17	boundary	canonical	canonical	0.645
154.500	1.500	structured	1	3	14	central	canonical	canonical	0.767
156.000	1.500	structured	1	3	12	central	canonical	canonical	0.693
157.500	1.500	structured	1	3	14	central	rotated	rotated	1.134
159.000	1.500	structured	1	3	11	boundary	canonical	canonical	0.666
160.500	1.500	structured	1	3	15	central	canonical	canonical	0.590
162.000	1.500	structured	1	3	17	boundary	canonical	canonical	0.591
163.500	1.500	structured	1	3	13	central	canonical	canonical	0.557
165.000	1.500	structured	1	3	12	central	canonical	canonical	0.584
166.500	1.500	structured	1	3	15	central	canonical	canonical	0.634
168.000	1.500	structured	1	3	13	central	canonical	canonical	0.547
169.500	1.500	structured	1	3	12	central	canonical	canonical	0.570
171.000	1.500	structured	1	3	14	central	canonical	canonical	0.724
172.500	1.500	structured	1	3	16	central	canonical	canonical	0.588
174.000	1.500	structured	1	3	12	central	canonical	canonical	0.572
175.500	1.500	structured	1	3	14	central	canonical	canonical	0.681
177.000	1.500	structured	1	3	12	central	rotated	rotated	1.002
178.500	1.500	structured	1	3	13	central	canonical	canonical	0.625
180.000	1.500	structured	1	3	14	central	canonical	canonical	0.728
181.500	1.500	structured	1	3	13	central	rotated	rotated	1.116
183.000	1.500	structured	1	3	12	central	canonical	canonical	0.653
184.500	1.500	structured	1	3	15	central	canonical	canonical	0.735
186.000	1.500	structured	1	3	17	boundary	canonical	canonical	0.919
187.500	1.500	structured	1	3	14	central	canonical	canonical	0.686
189.000	1.500	structured	1	3	17	boundary	rotated	rotated	1.353
190.500	1.500	structured	1	3	14	central	rotated	rotated	1.170
192.000	1.500	structured	1	3	15	central	canonical	canonical	0.768
193.500	1.500	structured	1	3	14	central	rotated	rotated	1.135
195.000	1.500	structured	1	3	13	central	canonical	canonical	0.831
196.500	1.500	structured	1	3	11	boundary	canonical	canonical	1.203
198.000	1.500	structured	1	3	12	central	canonical	canonical	0.852
199.500	1.500	structured	1	3	11	boundary	rotated	rotated	1.068
201.000	1.500	structured	1	3	12	central	rotated	rotated	0.911
202.500	1.500	structured	1	3	15	central	canonical	canonical	0.812
204.000	1.500	structured	1	3	16	central	canonical	canonical	0.778
205.500	1.500	structured	1	3	15	central	rotated	rotated	0.838
207.000	1.500	structured	1	3	14	central	canonical	canonical	0.781
208.500	1.500	structured	1	3	15	central	rotated	rotated	0.989
210.000	1.500	structured	1	3	14	central	rotated	rotated	0.940
211.500	1.500	structured	1	3	15	central	rotated	rotated	0.945
213.000	1.500	structured	1	3	11	boundary	canonical	canonical	0.758
214.500	1.500	structured	1	3	13	central	canonical	canonical	0.663
216.000	1.500	structured	1	3	15	central	canonical	canonical	0.925
217.500	1.500	structured	1	3	14	central	canonical	canonical	0.907
219.000	1.500	structured	1	3	16	central	canonical	canonical	0.736
220.500	1.500	structured	1	3	12	central	canonical	canonical	0.741
222.000	1.500	structured	1	3	13	central	canonical	canonical	0.646
223.500	1.500	structured	1	3	15	central	canonical	canonical	0.628
225.000	1.500	structured	1	3	16	central	canonical	canonical	0.731
226.500	1.500	structured	1	3	11	boundary	canonical	canonical	0.666
228.000	1.500	structured	1	3	14	central	canonical	canonical	0.732
229.500	1.500	structured	1	3	16	central	canonical	canonical	0.657
231.000	1.500	structured	1	3	12	central	canonical	canonical	0.625
232.500	1.500	structured	1	3	15	central	canonical	canonical	0.741
234.000	1.500	structured	1	3	14	central	canonical	canonical	0.651
235.500	1.500	structured	1	3	13	central	canonical	canonical	0.619
237.000	1.500	structured	1	3	11	boundary	canonical	canonical	0.607
238.500	1.500	structured	1	3	12	central	canonical	canonical	0.599
240.000	1.500	structured	1	3	17	boundary	canonical	canonical	0.809
241.500	1.500	structured	1	1	18	boundary	canonical	canonical	0.693
243.000	1.500	structured	1	1	2	central	canonical	canonical	0.574
244.500	1.500	structured	1	1	21	central	canonical	canonical	0.621
246.000	1.500	structured	1	1	18	boundary	canonical	canonical	0.664
247.500	1.500	structured	1	1	2	central	canonical	canonical	0.603
249.000	1.500	structured	1	1	1	central	canonical	canonical	0.818
250.500	1.500	structured	1	1	2	central	rotated	rotated	1.109
252.000	1.500	structured	1	1	21	central	canonical	canonical	0.627
253.500	1.500	structured	1	1	2	central	rotated	rotated	0.913
255.000	1.500	structured	1	1	19	central	canonical	canonical	0.866
256.500	1.500	structured	1	1	18	boundary	canonical	canonical	0.955
258.000	1.500	structured	1	1	2	central	canonical	canonical	0.693
259.500	1.500	structured	1	1	3	boundary	canonical	canonical	0.694
261.000	1.500	structured	1	1	2	central	rotated	rotated	0.912
262.500	1.500	structured	1	1	21	central	canonical	canonical	0.693
264.000	1.500	structured	1	1	1	central	canonical	canonical	0.801
265.500	1.500	structured	1	1	3	boundary	canonical	canonical	0.699
267.000	1.500	structured	1	1	1	central	rotated	rotated	0.902
268.500	1.500	structured	1	1	20	central	canonical	canonical	0.669
270.000	1.500	structured	1	1	2	central	canonical	canonical	0.612
271.500	1.500	structured	1	1	3	boundary	canonical	canonical	0.777
273.000	1.500	structured	1	1	2	central	rotated	rotated	0.824
274.500	1.500	structured	1	1	18	boundary	canonical	canonical	0.618
276.000	1.500	structured	1	1	21	central	canonical	canonical	0.787
277.500	1.500	structured	1	1	2	central	canonical	canonical	0.676
279.000	1.500	structured	1	1	1	central	canonical	canonical	0.619
280.500	1.500	structured	1	1	21	central	canonical	canonical	0.561
282.000	1.500	structured	1	1	3	boundary	canonical	canonical	0.677
283.500	1.500	structured	1	2	4	boundary	canonical	canonical	0.734
285.000	1.500	structured	1	2	7	central	canonical	canonical	0.700
286.500	1.500	structured	1	2	9	central	canonical	canonical	0.669
288.000	1.500	structured	1	2	5	central	canonical	canonical	0.661
289.500	1.500	structured	1	2	8	central	canonical	canonical	0.641
291.000	1.500	structured	1	2	5	central	rotated	rotated	0.897
292.500	1.500	structured	1	2	7	central	canonical	canonical	0.743
294.000	1.500	structured	1	2	4	boundary	canonical	canonical	0.648
295.500	1.500	structured	1	2	5	central	canonical	canonical	0.694
297.000	1.500	structured	1	2	8	central	canonical	canonical	0.519
298.500	1.500	structured	1	2	7	central	canonical	canonical	0.665
300.000	1.500	structured	1	2	4	boundary	canonical	canonical	0.642
301.500	1.500	structured	1	2	5	central	canonical	canonical	0.681
303.000	1.500	structured	1	2	6	central	canonical	canonical	0.612
304.500	1.500	structured	1	2	5	central	rotated	rotated	1.019
306.000	1.500	structured	1	2	10	boundary	canonical	canonical	0.813
307.500	1.500	structured	1	2	5	central	rotated	rotated	1.054
309.000	1.500	structured	1	2	7	central	canonical	canonical	0.628
310.500	1.500	structured	1	2	8	central	canonical	canonical	0.558
312.000	1.500	structured	1	2	10	boundary	canonical	canonical	0.687
313.500	1.500	structured	1	2	5	central	canonical	canonical	0.618
315.000	1.500	structured	1	2	8	central	canonical	canonical	0.593
316.500	1.500	structured	1	2	9	central	canonical	canonical	0.671
318.000	1.500	structured	1	2	7	central	canonical	canonical	0.590
319.500	1.500	structured	1	2	5	central	canonical	canonical	0.588
321.000	1.500	structured	1	2	8	central	canonical	canonical	0.639
322.500	1.500	structured	1	2	6	central	canonical	canonical	0.595
324.000	1.500	structured	1	2	10	boundary	canonical	canonical	0.524
325.500	1.500	structured	1	2	6	central	rotated	rotated	1.068
327.000	1.500	structured	1	2	9	central	canonical	canonical	0.652
328.500	1.500	structured	1	2	4	boundary	canonical	canonical	0.808
330.000	1.500	structured	1	2	6	central	canonical	canonical	0.863
331.500	1.500	structured	1	2	5	central	canonical	canonical	0.719
333.000	1.500	structured	1	2	9	central	canonical	canonical	0.680
334.500	1.500	structured	1	2	7	central	canonical	canonical	0.712
336.000	1.500	structured	1	2	8	central	canonical	canonical	0.682
337.500	1.500	structured	1	2	9	central	canonical	canonical	0.643
339.000	1.500	structured	1	2	6	central	canonical	canonical	0.637
340.500	1.500	structured	1	2	8	central	canonical	canonical	0.622
342.000	1.500	structured	1	2	6	central	rotated	rotated	0.923
343.500	1.500	structured	1	2	5	central	canonical	canonical	0.696
345.000	1.500	structured	1	2	10	boundary	canonical	canonical	0.753
346.500	1.500	structured	1	2	5	central	rotated	rotated	0.775
348.000	1.500	structured	1	2	10	boundary	rotated	rotated	1.310
349.500	1.500	structured	1	2	7	central	canonical	canonical	0.628
351.000	1.500	structured	1	2	5	central	canonical	canonical	0.731
352.500	1.500	structured	1	2	6	central	canonical	canonical	0.864
354.000	1.500	structured	1	2	10	boundary	canonical	canonical	0.737
355.500	1.500	structured	1	2	5	central	canonical	canonical	0.729
357.000	1.500	structured	1	2	9	central	canonical	canonical	0.725
358.500	1.500	structured	1	2	10	boundary	canonical	canonical	0.811
360.000	1.500	structured	1	2	5	central	canonical	canonical	0.766
361.500	1.500	structured	1	2	4	boundary	canonical	canonical	0.916
363.000	1.500	structured	1	2	8	central	canonical	canonical	0.880
364.500	1.500	structured	1	2	10	boundary	canonical	canonical	0.710
366.000	1.500	structured	1	2	8	central	rotated	rotated	0.972
367.500	1.500	structured	1	2	10	boundary	rotated	rotated	1.149
369.000	1.500	structured	1	2	7	central	canonical	canonical	0.766
370.500	1.500	structured	1	2	6	central	canonical	canonical	0.768
372.000	1.500	structured	1	2	5	central	canonical	canonical	0.617
373.500	1.500	structured	1	2	9	central	canonical	canonical	0.709
375.000	1.500	structured	1	2	5	central	rotated	rotated	0.903
376.500	1.500	structured	1	2	6	central	canonical	canonical	0.715
378.000	1.500	structured	1	2	5	central	rotated	rotated	0.867
379.500	1.500	structured	1	2	9	central	canonical	canonical	0.637
381.000	1.500	structured	1	2	4	boundary	canonical	canonical	0.784
382.500	1.500	structured	1	2	6	central	canonical	canonical	0.678
384.000	1.500	structured	1	2	8	central	canonical	canonical	0.689
385.500	1.500	structured	1	2	9	central	canonical	canonical	0.678
387.000	1.500	structured	1	2	10	boundary	canonical	canonical	0.855
388.500	1.500	structured	1	3	11	boundary	canonical	canonical	0.833
390.000	1.500	structured	1	3	15	central	canonical	canonical	0.751
391.500	1.500	structured	1	3	16	central	canonical	canonical	0.713
393.000	1.500	structured	1	3	15	central	rotated	rotated	0.939
394.500	1.500	structured	1	3	17	boundary	canonical	canonical	1.073
396.000	1.500	structured	1	1	18	boundary	canonical	canonical	0.875
397.500	1.500	structured	1	1	21	central	canonical	canonical	0.919
399.000	1.500	structured	1	1	19	central	canonical	canonical	0.877
400.500	1.500	structured	1	1	18	boundary	canonical	canonical	0.764
402.000	1.500	structured	1	3	17	boundary	canonical	canonical	0.745
403.500	1.500	structured	1	3	14	central	canonical	canonical	0.874
405.000	1.500	structured	1	3	11	boundary	canonical	canonical	0.802
406.500	1.500	structured	1	3	12	central	canonical	canonical	0.710
408.000	1.500	structured	1	3	13	central	canonical	canonical	0.711
409.500	1.500	structured	1	3	14	central	canonical	canonical	0.790
411.000	1.500	structured	1	3	11	boundary	canonical	canonical	0.849
412.500	1.500	structured	1	3	13	central	canonical	canonical	0.676
414.000	1.500	structured	1	3	15	central	canonical	canonical	0.775
415.500	1.500	structured	1	3	12	central	canonical	canonical	0.715
417.000	1.500	structured	1	3	14	central	canonical	canonical	0.823
418.500	1.500	structured	1	3	17	boundary	canonical	canonical	0.899
420.000	1.500	structured	1	3	14	central	rotated	rotated	0.991
421.500	1.500	structured	1	3	13	central	canonical	canonical	0.899
423.000	1.500	structured	1	3	16	central	canonical	canonical	0.767
424.500	1.500	structured	1	3	11	boundary	canonical	canonical	0.829
426.000	1.500	structured	1	3	16	central	rotated	rotated	1.227
427.500	1.500	structured	1	3	12	central	canonical	canonical	0.707
429.000	1.500	structured	1	3	14	central	canonical	canonical	0.836
430.500	1.500	structured	1	3	17	boundary	canonical	canonical	0.706
432.000	1.500	structured	1	1	18	boundary	canonical	canonical	0.723
433.500	1.500	structured	1	1	21	central	canonical	canonical	0.766
435.000	1.500	structured	1	1	2	central	canonical	canonical	0.664
436.500	1.500	structured	1	1	3	boundary	canonical	canonical	0.652
438.000	1.500	structured	1	1	20	central	canonical	canonical	0.644
439.500	1.500	structured	1	1	1	central	canonical	canonical	0.686
441.000	1.500	structured	1	1	19	central	canonical	canonical	0.770
442.500	1.500	structured	1	1	2	central	canonical	canonical	0.661
444.000	1.500	structured	1	1	1	central	canonical	canonical	1.278
445.500	1.500	structured	1	1	20	central	canonical	canonical	0.706
447.000	1.500	structured	1	1	21	central	canonical	canonical	0.618
448.500	1.500	structured	1	1	1	central	canonical	canonical	0.596
450.000	1.500	structured	1	1	20	central	canonical	canonical	0.740
451.500	1.500	structured	1	1	21	central	canonical	canonical	0.651
453.000	1.500	structured	1	1	1	central	canonical	canonical	0.812
454.500	1.500	structured	1	1	18	boundary	canonical	canonical	0.603
456.000	1.500	structured	1	3	17	boundary	canonical	canonical	0.640
457.500	1.500	structured	1	3	14	central	canonical	canonical	0.691
459.000	1.500	structured	1	3	13	central	canonical	canonical	0.606
460.500	1.500	structured	1	3	14	central	rotated	rotated	1.494
462.000	1.500	structured	1	3	16	central	canonical	canonical	0.646
463.500	1.500	structured	1	3	17	boundary	canonical	canonical	0.778
465.000	1.500	structured	1	3	14	central	canonical	canonical	0.704
466.500	1.500	structured	1	3	11	boundary	canonical	canonical	0.578
468.000	1.500	structured	1	3	13	central	canonical	canonical	0.648
469.500	1.500	structured	1	3	12	central	canonical	canonical	0.581
471.000	1.500	structured	1	3	11	boundary	canonical	canonical	0.612
