onset	duration	trial_type	block	community	object	object_type	orientation	response	response_time
4.000	1.000	structured	1	3	11	boundary	canonical	canonical	0.811
10.000	1.000	structured	1	3	13	central	canonical	canonical	0.669
16.000	1.000	structured	1	3	17	boundary	canonical	canonical	0.648
22.000	1.000	structured	1	3	13	central	rotated	rotated	0.784
28.000	1.000	structured	1	3	15	central	canonical	canonical	0.755
30.000	1.000	structured	1	3	16	central	canonical	canonical	0.737
36.000	1.000	structured	1	3	11	boundary	canonical	canonical	0.646
42.000	1.000	structured	1	3	12	central	canonical	canonical	0.730
46.000	1.000	structured	1	3	11	boundary	rotated	rotated	0.862
48.000	1.000	structured	1	3	15	central	canonical	canonical	0.744
50.000	1.000	structured	1	3	11	boundary	rotated	rotated	0.787
54.000	1.000	structured	1	3	12	central	canonical	canonical	0.674
56.000	1.000	structured	1	3	17	boundary	canonical	canonical	0.709
62.000	1.000	structured	1	1	18	boundary	canonical	canonical	0.694
66.000	1.000	structured	1	1	19	central	canonical	canonical	0.731
68.000	1.000	structured	1	1	3	boundary	canonical	canonical	0.816
72.000	1.000	structured	1	1	19	central	rotated	rotated	0.842
78.000	1.000	structured	1	1	1	central	canonical	canonical	0.718
80.000	1.000	structured	1	1	21	central	canonical	canonical	0.711
82.000	1.000	structured	1	1	1	central	rotated	rotated	0.861
88.000	1.000	structured	1	1	20	central	canonical	canonical	0.710
90.000	1.000	scrambled	2	2	6	central	canonical	canonical	0.716
92.000	1.000	scrambled	2	1	3	boundary	canonical	canonical	0.710
94.000	1.000	scrambled	2	3	16	central	canonical	canonical	0.769
98.000	1.000	scrambled	2	2	5	central	canonical	canonical	0.832
102.000	1.000	scrambled	2	3	15	central	canonical	canonical	0.774
108.000	1.000	scrambled	2	2	7	central	canonical	canonical	0.735
110.000	1.000	scrambled	2	1	19	central	canonical	canonical	0.801
114.000	1.000	scrambled	2	1	20	central	canonical	canonical	0.680
118.000	1.000	scrambled	2	3	14	central	canonical	canonical	0.676
124.000	1.000	scrambled	2	2	9	central	canonical	canonical	0.751
126.000	1.000	scrambled	2	3	17	boundary	canonical	canonical	0.683
132.000	1.000	scrambled	2	1	2	central	canonical	canonical	0.726
134.000	1.000	scrambled	2	3	12	central	canonical	canonical	0.710
136.000	1.000	scrambled	2	1	18	boundary	canonical	canonical	0.771
138.000	1.000	scrambled	2	2	10	boundary	canonical	canonical	0.727
142.000	1.000	scrambled	2	3	13	central	canonical	canonical	0.716
144.000	1.000	scrambled	2	3	11	boundary	canonical	canonical	0.743
148.000	1.000	scrambled	2	1	21	central	canonical	canonical	0.679
150.000	1.000	scrambled	2	1	1	central	canonical	canonical	0.823
154.000	1.000	scrambled	2	2	4	boundary	canonical	canonical	0.814
160.000	1.000	scrambled	2	2	8	central	canonical	canonical	0.672
166.000	1.000	structured	3	2	9	central	canonical	canonical	0.729
170.000	1.000	structured	3	2	10	boundary	canonical	canonical	0.663
172.000	1.000	structured	3	2	6	central	canonical	canonical	0.664
178.000	1.000	structured	3	2	7	central	canonical	canonical	0.605
180.000	1.000	structured	3	2	10	boundary	canonical	canonical	0.654
184.000	1.000	structured	3	2	8	central	canonical	canonical	0.633
188.000	1.000	structured	3	2	7	central	canonical	canonical	0.630
190.000	1.000	structured	3	2	5	central	canonical	canonical	0.654
196.000	1.000	structured	3	2	4	boundary	canonical	canonical	0.742
200.000	1.000	structured	3	2	9	central	canonical	canonical	0.760
204.000	1.000	structured	3	2	7	central	canonical	canonical	0.814
206.000	1.000	structured	3	2	4	boundary	canonical	canonical	0.797
210.000	1.000	structured	3	2	5	central	canonical	canonical	0.719
214.000	1.000	structured	3	2	4	boundary	rotated	rotated	0.954
216.000	1.000	structured	3	2	7	central	canonical	canonical	0.694
218.000	1.000	structured	3	2	6	central	canonical	canonical	0.658
220.000	1.000	structured	3	2	9	central	canonical	canonical	0.824
226.000	1.000	structured	3	2	7	central	canonical	canonical	0.639
232.000	1.000	structured	3	2	8	central	canonical	canonical	0.749
238.000	1.000	structured	3	2	6	central	canonical	canonical	0.639
242.000	1.000	structured	3	2	10	boundary	canonical	canonical	0.635
248.000	1.000	structured	4	2	9	central	canonical	canonical	0.693
250.000	1.000	structured	4	2	8	central	canonical	canonical	0.866
252.000	1.000	structured	4	2	4	boundary	canonical	canonical	0.780
254.000	1.000	structured	4	2	9	central	canonical	canonical	0.859
258.000	1.000	structured	4	2	7	central	canonical	canonical	0.645
262.000	1.000	structured	4	2	6	central	canonical	canonical	0.630
266.000	1.000	structured	4	2	10	boundary	canonical	canonical	0.647
272.000	1.000	structured	4	2	8	central	canonical	canonical	0.653
278.000	1.000	structured	4	2	9	central	canonical	canonical	0.693
284.000	1.000	structured	4	2	6	central	canonical	canonical	0.636
286.000	1.000	structured	4	2	7	central	canonical	canonical	0.658
290.000	1.000	structured	4	2	9	central	canonical	canonical	0.584
292.000	1.000	structured	4	2	8	central	canonical	canonical	0.632
298.000	1.000	structured	4	2	5	central	canonical	canonical	0.984
304.000	1.000	structured	4	2	7	central	canonical	canonical	0.659
310.000	1.000	structured	4	2	6	central	canonical	canonical	0.619
314.000	1.000	structured	4	2	4	boundary	canonical	canonical	0.736
318.000	1.000	structured	4	2	9	central	canonical	canonical	0.627
324.000	1.000	structured	4	2	4	boundary	rotated	rotated	0.853
330.000	1.000	structured	4	2	8	central	canonical	canonical	0.670
334.000	1.000	structured	4	2	4	boundary	rotated	rotated	0.766
338.000	1.000	scrambled	5	3	15	central	canonical	canonical	0.725
340.000	1.000	scrambled	5	2	5	central	canonical	canonical	0.772
346.000	1.000	scrambled	5	1	18	boundary	canonical	canonical	0.629
350.000	1.000	scrambled	5	3	13	central	canonical	canonical	0.681
354.000	1.000	scrambled	5	2	4	boundary	canonical	canonical	0.593
360.000	1.000	scrambled	5	1	1	central	canonical	canonical	0.698
366.000	1.000	scrambled	5	2	7	central	canonical	canonical	0.652
370.000	1.000	scrambled	5	2	9	central	canonical	canonical	0.715
372.000	1.000	scrambled	5	1	20	central	canonical	canonical	0.769
376.000	1.000	scrambled	5	1	3	boundary	canonical	canonical	0.820
380.000	1.000	scrambled	5	3	16	central	canonical	canonical	0.734
384.000	1.000	scrambled	5	3	17	boundary	canonical	canonical	0.649
390.000	1.000	scrambled	5	1	21	central	canonical	canonical	0.745
392.000	1.000	scrambled	5	3	14	central	canonical	canonical	0.699
398.000	1.000	scrambled	5	2	8	central	canonical	canonical	0.706
404.000	1.000	scrambled	5	3	11	boundary	canonical	canonical	0.668
408.000	1.000	scrambled	5	1	2	central	canonical	canonical	0.739
414.000	1.000	scrambled	5	2	6	central	canonical	canonical	0.665
416.000	1.000	scrambled	5	3	12	central	canonical	canonical	0.772
422.000	1.000	scrambled	5	1	19	central	canonical	canonical	0.715
424.000	1.000	scrambled	5	2	10	boundary	canonical	canonical	0.689
428.000	1.000	structured	6	2	7	central	canonical	canonical	0.695
430.000	1.000	structured	6	2	9	central	canonical	canonical	0.729
436.000	1.000	structured	6	2	8	central	canonical	canonical	0.670
442.000	1.000	structured	6	2	9	central	rotated	canonical	0.699
444.000	1.000	structured	6	2	8	central	rotated	rotated	0.927
448.000	1.000	structured	6	2	4	boundary	canonical	canonical	0.712
450.000	1.000	structured	6	2	9	central	canonical	canonical	0.805
454.000	1.000	structured	6	2	10	boundary	canonical	canonical	0.660
456.000	1.000	structured	6	2	5	central	canonical	canonical	0.765
462.000	1.000	structured	6	2	4	boundary	canonical	canonical	0.676
466.000	1.000	structured	6	1	3	boundary	canonical	canonical	0.692
470.000	1.000	structured	6	1	19	central	canonical	canonical	0.668
476.000	1.000	structured	6	1	3	boundary	rotated	canonical	0.767
478.000	1.000	structured	6	1	2	central	canonical	canonical	0.705
480.000	1.000	structured	6	1	1	central	canonical	canonical	0.737
484.000	1.000	structured	6	1	18	boundary	canonical	canonical	0.728
488.000	1.000	structured	6	3	17	boundary	canonical	canonical	0.679
492.000	1.000	structured	6	3	16	central	canonical	canonical	0.811
494.000	1.000	structured	6	3	14	central	canonical	canonical	0.820
500.000	1.000	structured	6	3	17	boundary	canonical	canonical	0.664
504.000	1.000	structured	6	1	18	boundary	canonical	canonical	0.682
506.000	1.000	structured	7	1	19	central	canonical	canonical	0.981
510.000	1.000	structured	7	1	2	central	canonical	canonical	0.653
516.000	1.000	structured	7	1	19	central	rotated	rotated	0.906
522.000	1.000	structured	7	1	1	central	canonical	canonical	0.715
524.000	1.000	structured	7	1	19	central	rotated	rotated	0.987
530.000	1.000	structured	7	1	2	central	canonical	canonical	0.732
534.000	1.000	structured	7	1	3	boundary	canonical	canonical	0.685
538.000	1.000	structured	7	1	1	central	canonical	canonical	0.756
540.000	1.000	structured	7	1	19	central	canonical	canonical	0.812
546.000	1.000	structured	7	1	1	central	rotated	rotated	0.916
548.000	1.000	structured	7	1	21	central	canonical	canonical	0.811
552.000	1.000	structured	7	1	1	central	rotated	rotated	0.982
554.000	1.000	structured	7	1	18	boundary	canonical	canonical	0.861
560.000	1.000	structured	7	1	20	central	canonical	canonical	0.705
562.000	1.000	structured	7	1	19	central	canonical	canonical	0.774
566.000	1.000	structured	7	1	20	central	rotated	rotated	0.914
570.000	1.000	structured	7	1	19	central	rotated	rotated	0.984
576.000	1.000	structured	7	1	3	boundary	canonical	canonical	0.828
582.000	1.000	structured	7	1	1	central	canonical	canonical	0.874
588.000	1.000	structured	7	1	21	central	canonical	canonical	0.716
590.000	1.000	structured	7	1	3	boundary	canonical	canonical	0.761
