onset	duration	trial_type	block	community	object	object_type	orientation	response	response_time
4.000	1.000	structured	1	3	12	central	canonical	canonical	0.896
10.000	1.000	structured	1	3	16	central	canonical	canonical	0.705
14.000	1.000	structured	1	3	14	central	canonical	canonical	0.713
16.000	1.000	structured	1	3	12	central	canonical	canonical	0.613
18.000	1.000	structured	1	3	17	boundary	canonical	canonical	0.761
20.000	1.000	structured	1	1	18	boundary	canonical	canonical	0.594
22.000	1.000	structured	1	1	2	central	canonical	canonical	0.578
24.000	1.000	structured	1	1	1	central	canonical	canonical	0.549
30.000	1.000	structured	1	1	3	boundary	canonical	canonical	0.573
36.000	1.000	structured	1	2	4	boundary	canonical	canonical	0.695
40.000	1.000	structured	1	2	5	central	canonical	canonical	0.627
44.000	1.000	structured	1	2	4	boundary	rotated	rotated	0.877
46.000	1.000	structured	1	1	3	boundary	canonical	canonical	0.615
52.000	1.000	structured	1	1	19	central	canonical	canonical	0.948
58.000	1.000	structured	1	1	3	boundary	rotated	rotated	0.850
64.000	1.000	structured	1	1	2	central	canonical	canonical	0.711
68.000	1.000	structured	1	1	18	boundary	canonical	canonical	0.629
70.000	1.000	structured	1	3	17	boundary	canonical	canonical	0.742
76.000	1.000	structured	1	1	18	boundary	rotated	rotated	0.841
80.000	1.000	structured	1	1	1	central	canonical	canonical	0.636
82.000	1.000	structured	1	1	21	central	canonical	canonical	0.657
86.000	1.000	scrambled	2	2	4	boundary	canonical	canonical	0.667
90.000	1.000	scrambled	2	2	5	central	canonical	canonical	0.607
92.000	1.000	scrambled	2	3	17	boundary	canonical	canonical	0.691
94.000	1.000	scrambled	2	1	18	boundary	canonical	canonical	0.619
100.000	1.000	scrambled	2	3	16	central	canonical	canonical	0.682
102.000	1.000	scrambled	2	2	9	central	canonical	canonical	0.621
106.000	1.000	scrambled	2	2	6	central	canonical	canonical	0.607
112.000	1.000	scrambled	2	3	12	central	canonical	canonical	0.801
116.000	1.000	scrambled	2	1	21	central	canonical	canonical	0.775
122.000	1.000	scrambled	2	3	11	boundary	canonical	canonical	0.821
124.000	1.000	scrambled	2	1	19	central	canonical	canonical	0.651
126.000	1.000	scrambled	2	2	7	central	canonical	canonical	0.590
132.000	1.000	scrambled	2	2	8	central	canonical	canonical	0.958
138.000	1.000	scrambled	2	3	15	central	canonical	canonical	0.645
140.000	1.000	scrambled	2	1	2	central	canonical	canonical	0.708
144.000	1.000	scrambled	2	1	3	boundary	canonical	canonical	0.682
148.000	1.000	scrambled	2	1	1	central	canonical	canonical	0.585
154.000	1.000	scrambled	2	3	14	central	canonical	canonical	0.710
160.000	1.000	scrambled	2	3	13	central	canonical	canonical	0.601
166.000	1.000	scrambled	2	1	20	central	canonical	canonical	0.692
170.000	1.000	scrambled	2	2	10	boundary	canonical	canonical	0.996
172.000	1.000	structured	3	2	5	central	canonical	canonical	0.760
178.000	1.000	structured	3	2	8	central	canonical	canonical	0.639
180.000	1.000	structured	3	2	4	boundary	canonical	canonical	0.650
184.000	1.000	structured	3	2	9	central	canonical	canonical	0.769
188.000	1.000	structured	3	2	7	central	canonical	canonical	0.576
192.000	1.000	structured	3	2	8	central	canonical	canonical	0.731
194.000	1.000	structured	3	2	5	central	canonical	canonical	0.593
200.000	1.000	structured	3	2	6	central	canonical	canonical	0.578
204.000	1.000	structured	3	2	10	boundary	canonical	canonical	0.754
206.000	1.000	structured	3	2	9	central	canonical	canonical	0.665
212.000	1.000	structured	3	2	6	central	canonical	canonical	0.540
216.000	1.000	structured	3	2	9	central	rotated	rotated	0.935
222.000	1.000	structured	3	2	5	central	canonical	canonical	0.607
228.000	1.000	structured	3	2	7	central	canonical	canonical	0.656
232.000	1.000	structured	3	2	4	boundary	canonical	canonical	0.792
238.000	1.000	structured	3	2	7	central	rotated	rotated	0.835
242.000	1.000	structured	3	2	5	central	canonical	canonical	0.587
244.000	1.000	structured	3	2	9	central	canonical	canonical	0.710
246.000	1.000	structured	3	2	7	central	canonical	canonical	0.561
250.000	1.000	structured	3	2	10	boundary	canonical	canonical	0.483
256.000	1.000	structured	3	2	9	central	canonical	canonical	0.510
260.000	1.000	structured	4	2	7	central	canonical	canonical	0.478
264.000	1.000	structured	4	2	10	boundary	canonical	canonical	0.456
266.000	1.000	structured	4	3	11	boundary	canonical	canonical	0.624
272.000	1.000	structured	4	3	12	central	canonical	canonical	0.663
274.000	1.000	structured	4	3	14	central	canonical	canonical	0.645
276.000	1.000	structured	4	3	13	central	canonical	canonical	0.592
280.000	1.000	structured	4	3	12	central	canonical	canonical	0.557
282.000	1.000	structured	4	3	17	boundary	canonical	canonical	0.675
284.000	1.000	structured	4	3	16	central	canonical	canonical	0.525
290.000	1.000	structured	4	3	17	boundary	rotated	rotated	0.892
296.000	1.000	structured	4	1	18	boundary	canonical	canonical	0.738
298.000	1.000	structured	4	1	20	central	canonical	canonical	0.624
302.000	1.000	structured	4	1	2	central	canonical	canonical	0.523
306.000	1.000	structured	4	1	18	boundary	canonical	canonical	0.570
310.000	1.000	structured	4	1	1	central	canonical	canonical	0.578
316.000	1.000	structured	4	1	19	central	canonical	canonical	0.665
318.000	1.000	structured	4	1	2	central	canonical	canonical	0.544
322.000	1.000	structured	4	1	20	central	canonical	canonical	0.628
326.000	1.000	structured	4	1	18	boundary	canonical	canonical	0.561
328.000	1.000	structured	4	3	17	boundary	canonical	canonical	0.749
330.000	1.000	structured	4	3	14	central	canonical	canonical	0.668
336.000	1.000	scrambled	5	2	10	boundary	canonical	canonical	0.581
338.000	1.000	scrambled	5	1	2	central	canonical	canonical	0.587
342.000	1.000	scrambled	5	2	6	central	canonical	canonical	0.582
348.000	1.000	scrambled	5	1	20	central	canonical	canonical	0.753
350.000	1.000	scrambled	5	3	12	central	canonical	canonical	0.584
354.000	1.000	scrambled	5	3	15	central	canonical	canonical	0.581
360.000	1.000	scrambled	5	2	8	central	canonical	canonical	0.727
362.000	1.000	scrambled	5	2	7	central	canonical	canonical	0.613
368.000	1.000	scrambled	5	1	21	central	canonical	canonical	0.617
370.000	1.000	scrambled	5	3	16	central	canonical	canonical	0.623
374.000	1.000	scrambled	5	1	19	central	canonical	canonical	0.553
378.000	1.000	scrambled	5	1	3	boundary	canonical	canonical	0.628
384.000	1.000	scrambled	5	3	11	boundary	canonical	canonical	0.550
386.000	1.000	scrambled	5	3	17	boundary	canonical	canonical	0.627
392.000	1.000	scrambled	5	3	14	central	canonical	canonical	0.700
398.000	1.000	scrambled	5	1	18	boundary	canonical	canonical	0.562
402.000	1.000	scrambled	5	2	4	boundary	canonical	canonical	0.651
406.000	1.000	scrambled	5	2	9	central	canonical	canonical	0.461
412.000	1.000	scrambled	5	1	1	central	canonical	canonical	0.521
416.000	1.000	scrambled	5	2	5	central	canonical	canonical	0.572
418.000	1.000	scrambled	5	3	13	central	canonical	canonical	0.610
424.000	1.000	structured	6	3	12	central	canonical	canonical	0.593
430.000	1.000	structured	6	3	13	central	rotated	rotated	0.844
434.000	1.000	structured	6	3	12	central	rotated	rotated	0.983
438.000	1.000	structured	6	3	11	boundary	canonical	canonical	0.720
440.000	1.000	structured	6	3	14	central	canonical	canonical	0.764
442.000	1.000	structured	6	3	17	boundary	canonical	canonical	0.725
448.000	1.000	structured	6	3	15	central	canonical	canonical	0.658
450.000	1.000	structured	6	3	16	central	canonical	canonical	0.629
454.000	1.000	structured	6	3	15	central	rotated	rotated	0.849
456.000	1.000	structured	6	3	12	central	canonical	canonical	0.652
462.000	1.000	structured	6	3	15	central	rotated	rotated	0.740
466.000	1.000	structured	6	3	17	boundary	canonical	canonical	0.826
470.000	1.000	structured	6	3	15	central	rotated	rotated	0.676
476.000	1.000	structured	6	3	17	boundary	rotated	rotated	0.935
478.000	1.000	structured	6	3	15	central	rotated	rotated	0.959
480.000	1.000	structured	6	3	14	central	canonical	canonical	0.657
486.000	1.000	structured	6	3	16	central	canonical	canonical	0.650
492.000	1.000	structured	6	3	13	central	canonical	canonical	0.695
494.000	1.000	structured	6	3	15	central	canonical	canonical	0.648
498.000	1.000	structured	6	3	11	boundary	canonical	canonical	0.673
502.000	1.000	structured	6	3	15	central	rotated	rotated	0.893
508.000	1.000	structured	7	3	13	central	canonical	canonical	0.673
510.000	1.000	structured	7	3	17	boundary	canonical	canonical	0.703
516.000	1.000	structured	7	3	15	central	canonical	canonical	0.723
522.000	1.000	structured	7	3	11	boundary	canonical	canonical	0.548
524.000	1.000	structured	7	3	16	central	canonical	canonical	0.529
528.000	1.000	structured	7	3	15	central	canonical	canonical	0.943
532.000	1.000	structured	7	3	11	boundary	canonical	canonical	0.643
536.000	1.000	structured	7	3	12	central	canonical	canonical	0.640
542.000	1.000	structured	7	3	14	central	canonical	canonical	0.637
544.000	1.000	structured	7	3	15	central	canonical	canonical	0.614
550.000	1.000	structured	7	3	16	central	canonical	canonical	0.750
554.000	1.000	structured	7	3	12	central	canonical	canonical	0.569
556.000	1.000	structured	7	3	11	boundary	canonical	canonical	0.624
558.000	1.000	structured	7	3	14	central	canonical	canonical	0.606
562.000	1.000	structured	7	3	13	central	canonical	canonical	0.556
566.000	1.000	structured	7	3	16	central	canonical	canonical	0.549
572.000	1.000	structured	7	3	15	central	canonical	canonical	0.995
574.000	1.000	structured	7	3	11	boundary	canonical	canonical	0.612
578.000	1.000	structured	7	2	10	boundary	canonical	canonical	0.657
584.000	1.000	structured	7	2	7	central	canonical	canonical	0.689
590.000	1.000	structured	7	2	8	central	canonical	canonical	0.759
