onset	duration	trial_type	block	community	object	object_type	orientation	response	response_time
4.000	1.000	structured	1	2	7	central	canonical	canonical	0.780
8.000	1.000	structured	1	2	10	boundary	canonical	canonical	0.571
10.000	1.000	structured	1	2	8	central	canonical	canonical	0.843
12.000	1.000	structured	1	2	10	boundary	rotated	rotated	0.872
14.000	1.000	structured	1	2	5	central	canonical	canonical	0.719
16.000	1.000	structured	1	2	9	central	canonical	canonical	0.631
20.000	1.000	structured	1	2	4	boundary	canonical	canonical	0.641
24.000	1.000	structured	1	2	9	central	rotated	canonical	0.620
26.000	1.000	structured	1	2	6	central	canonical	canonical	0.740
32.000	1.000	structured	1	2	7	central	canonical	canonical	0.626
36.000	1.000	structured	1	2	8	central	canonical	canonical	0.746
38.000	1.000	structured	1	2	9	central	canonical	canonical	0.638
40.000	1.000	structured	1	2	7	central	canonical	canonical	0.597
44.000	1.000	structured	1	2	5	central	canonical	canonical	0.596
48.000	1.000	structured	1	2	10	boundary	canonical	canonical	0.598
52.000	1.000	structured	1	2	5	central	rotated	rotated	0.860
56.000	1.000	structured	1	2	4	boundary	canonical	canonical	0.670
58.000	1.000	structured	1	2	6	central	canonical	canonical	0.697
64.000	1.000	structured	1	2	8	central	canonical	canonical	0.784
68.000	1.000	structured	1	2	9	central	canonical	canonical	0.803
72.000	1.000	structured	1	2	6	central	canonical	canonical	0.761
76.000	1.000	scrambled	2	3	13	central	canonical	canonical	0.645
80.000	1.000	scrambled	2	1	20	central	canonical	canonical	0.665
84.000	1.000	scrambled	2	2	6	central	canonical	canonical	0.678
90.000	1.000	scrambled	2	2	8	central	canonical	canonical	0.735
94.000	1.000	scrambled	2	1	3	boundary	canonical	canonical	0.689
96.000	1.000	scrambled	2	1	1	central	canonical	canonical	0.658
98.000	1.000	scrambled	2	2	7	central	canonical	canonical	0.621
100.000	1.000	scrambled	2	3	14	central	canonical	canonical	0.743
102.000	1.000	scrambled	2	2	4	boundary	canonical	canonical	0.590
106.000	1.000	scrambled	2	3	16	central	canonical	canonical	0.625
110.000	1.000	scrambled	2	1	18	boundary	canonical	canonical	0.622
114.000	1.000	scrambled	2	2	5	central	canonical	canonical	0.574
120.000	1.000	scrambled	2	3	15	central	canonical	canonical	0.640
124.000	1.000	scrambled	2	2	9	central	canonical	canonical	0.602
128.000	1.000	scrambled	2	3	17	boundary	canonical	canonical	0.618
130.000	1.000	scrambled	2	1	19	central	canonical	canonical	0.613
136.000	1.000	scrambled	2	3	11	boundary	canonical	canonical	0.796
142.000	1.000	scrambled	2	2	10	boundary	canonical	canonical	0.692
146.000	1.000	scrambled	2	1	21	central	canonical	canonical	0.740
152.000	1.000	scrambled	2	3	12	central	canonical	canonical	0.669
154.000	1.000	scrambled	2	1	2	central	canonical	canonical	0.614
160.000	1.000	structured	3	1	3	boundary	canonical	canonical	0.553
162.000	1.000	structured	3	2	4	boundary	canonical	canonical	0.649
164.000	1.000	structured	3	2	7	central	canonical	canonical	0.614
170.000	1.000	structured	3	2	4	boundary	rotated	rotated	0.777
174.000	1.000	structured	3	2	6	central	canonical	canonical	0.719
180.000	1.000	structured	3	2	10	boundary	canonical	canonical	0.548
186.000	1.000	structured	3	2	5	central	canonical	canonical	0.670
192.000	1.000	structured	3	2	4	boundary	canonical	canonical	0.882
194.000	1.000	structured	3	1	3	boundary	canonical	canonical	0.637
198.000	1.000	structured	3	2	4	boundary	rotated	canonical	0.583
202.000	1.000	structured	3	2	6	central	canonical	canonical	0.708
204.000	1.000	structured	3	2	10	boundary	canonical	canonical	0.611
210.000	1.000	structured	3	3	11	boundary	canonical	canonical	0.610
216.000	1.000	structured	3	3	15	central	canonical	canonical	0.601
220.000	1.000	structured	3	3	11	boundary	rotated	rotated	0.738
226.000	1.000	structured	3	3	15	central	rotated	rotated	0.749
228.000	1.000	structured	3	3	17	boundary	canonical	canonical	0.662
230.000	1.000	structured	3	3	14	central	canonical	canonical	0.907
232.000	1.000	structured	3	3	11	boundary	canonical	canonical	0.713
236.000	1.000	structured	3	3	13	central	canonical	canonical	0.773
242.000	1.000	structured	3	3	14	central	canonical	canonical	0.651
244.000	1.000	structured	4	3	16	central	canonical	canonical	0.631
248.000	1.000	structured	4	3	11	boundary	canonical	canonical	0.701
250.000	1.000	structured	4	3	13	central	canonical	canonical	0.710
254.000	1.000	structured	4	3	15	central	canonical	canonical	0.709
258.000	1.000	structured	4	3	11	boundary	canonical	canonical	0.616
264.000	1.000	structured	4	2	10	boundary	canonical	canonical	0.969
268.000	1.000	structured	4	2	7	central	canonical	canonical	0.578
272.000	1.000	structured	4	2	9	central	canonical	canonical	0.545
274.000	1.000	structured	4	2	7	central	rotated	canonical	0.612
280.000	1.000	structured	4	2	10	boundary	canonical	canonical	0.702
286.000	1.000	structured	4	3	11	boundary	canonical	canonical	0.601
292.000	1.000	structured	4	3	13	central	canonical	canonical	0.646
294.000	1.000	structured	4	3	16	central	canonical	canonical	0.708
300.000	1.000	structured	4	3	14	central	canonical	rotated	0.706
302.000	1.000	structured	4	3	17	boundary	canonical	canonical	0.786
304.000	1.000	structured	4	3	16	central	canonical	canonical	0.921
308.000	1.000	structured	4	3	15	central	canonical	canonical	0.714
310.000	1.000	structured	4	3	16	central	rotated	rotated	0.843
316.000	1.000	structured	4	3	17	boundary	canonical	canonical	0.675
322.000	1.000	structured	4	3	14	central	canonical	rotated	0.785
324.000	1.000	structured	4	3	11	boundary	canonical	canonical	0.721
326.000	1.000	scrambled	5	2	9	central	canonical	canonical	0.716
332.000	1.000	scrambled	5	3	13	central	canonical	canonical	0.696
338.000	1.000	scrambled	5	1	19	central	canonical	canonical	0.713
344.000	1.000	scrambled	5	1	21	central	canonical	canonical	0.698
348.000	1.000	scrambled	5	1	2	central	canonical	canonical	0.734
352.000	1.000	scrambled	5	2	7	central	canonical	canonical	0.733
358.000	1.000	scrambled	5	2	4	boundary	canonical	canonical	0.750
360.000	1.000	scrambled	5	3	16	central	canonical	canonical	0.806
366.000	1.000	scrambled	5	2	5	central	canonical	canonical	0.879
368.000	1.000	scrambled	5	1	1	central	canonical	canonical	0.695
370.000	1.000	scrambled	5	2	8	central	canonical	canonical	0.983
372.000	1.000	scrambled	5	3	14	central	canonical	canonical	0.814
378.000	1.000	scrambled	5	3	11	boundary	canonical	canonical	0.619
384.000	1.000	scrambled	5	2	10	boundary	canonical	canonical	0.625
388.000	1.000	scrambled	5	2	6	central	canonical	canonical	0.799
392.000	1.000	scrambled	5	1	3	boundary	canonical	canonical	0.664
396.000	1.000	scrambled	5	1	20	central	canonical	canonical	0.974
402.000	1.000	scrambled	5	1	18	boundary	canonical	canonical	0.635
404.000	1.000	scrambled	5	3	12	central	canonical	canonical	0.709
408.000	1.000	scrambled	5	3	17	boundary	canonical	canonical	0.679
414.000	1.000	scrambled	5	3	15	central	canonical	canonical	0.649
416.000	1.000	structured	6	3	17	boundary	rotated	rotated	0.918
422.000	1.000	structured	6	1	18	boundary	canonical	canonical	0.742
428.000	1.000	structured	6	1	2	central	canonical	canonical	0.807
430.000	1.000	structured	6	1	19	central	canonical	canonical	0.779
434.000	1.000	structured	6	1	1	central	canonical	canonical	0.718
438.000	1.000	structured	6	1	3	boundary	canonical	canonical	0.570
444.000	1.000	structured	6	1	20	central	canonical	canonical	0.833
446.000	1.000	structured	6	1	18	boundary	canonical	canonical	0.753
448.000	1.000	structured	6	1	19	central	canonical	canonical	0.715
450.000	1.000	structured	6	1	3	boundary	canonical	canonical	0.625
452.000	1.000	structured	6	1	21	central	canonical	canonical	0.628
454.000	1.000	structured	6	1	2	central	canonical	canonical	0.666
460.000	1.000	structured	6	1	19	central	canonical	canonical	0.591
462.000	1.000	structured	6	1	18	boundary	canonical	canonical	0.763
468.000	1.000	structured	6	1	20	central	canonical	canonical	0.620
472.000	1.000	structured	6	1	18	boundary	rotated	rotated	0.720
474.000	1.000	structured	6	1	20	central	rotated	rotated	0.878
476.000	1.000	structured	6	1	19	central	canonical	canonical	0.741
480.000	1.000	structured	6	1	20	central	rotated	rotated	0.773
486.000	1.000	structured	6	1	1	central	canonical	canonical	0.662
492.000	1.000	structured	6	1	2	central	canonical	canonical	0.657
496.000	1.000	structured	7	1	18	boundary	canonical	canonical	0.657
502.000	1.000	structured	7	1	21	central	canonical	canonical	0.622
506.000	1.000	structured	7	1	18	boundary	rotated	rotated	0.812
510.000	1.000	structured	7	1	21	central	rotated	rotated	0.985
512.000	1.000	structured	7	1	18	boundary	rotated	rotated	0.774
514.000	1.000	structured	7	1	20	central	canonical	canonical	0.677
520.000	1.000	structured	7	1	3	boundary	canonical	canonical	0.796
526.000	1.000	structured	7	1	1	central	canonical	canonical	0.716
532.000	1.000	structured	7	1	20	central	canonical	canonical	0.669
536.000	1.000	structured	7	1	19	central	canonical	canonical	0.586
540.000	1.000	structured	7	1	21	central	canonical	canonical	0.637
544.000	1.000	structured	7	1	1	central	canonical	canonical	0.555
550.000	1.000	structured	7	1	20	central	canonical	canonical	0.651
556.000	1.000	structured	7	1	1	central	rotated	rotated	0.841
558.000	1.000	structured	7	1	2	central	canonical	canonical	0.740
562.000	1.000	structured	7	1	1	central	rotated	rotated	0.921
568.000	1.000	structured	7	1	3	boundary	canonical	canonical	0.626
572.000	1.000	structured	7	1	19	central	canonical	canonical	0.626
578.000	1.000	structured	7	1	2	central	canonical	canonical	0.657
584.000	1.000	structured	7	1	1	central	canonical	canonical	0.743
590.000	1.000	structured	7	1	19	central	canonical	canonical	0.648
