onset	duration	trial_type	block	community	object	object_type	orientation	response	response_time
0.000	1.500	structured	1	2	4	boundary	canonical	canonical	0.830
1.500	1.500	structured	1	2	5	central	canonical	canonical	0.774
3.000	1.500	structured	1	2	8	central	canonical	canonical	0.838
4.500	1.500	structured	1	2	9	central	canonical	canonical	0.764
6.000	1.500	structured	1	2	4	boundary	canonical	canonical	0.779
7.500	1.500	structured	1	2	9	central	rotated	rotated	0.914
9.000	1.500	structured	1	2	5	central	canonical	canonical	0.721
10.500	1.500	structured	1	2	6	central	canonical	canonical	0.814
12.000	1.500	structured	1	2	10	boundary	canonical	canonical	0.686
13.500	1.500	structured	1	3	11	boundary	canonical	rotated	1.239
15.000	1.500	structured	1	3	15	central	canonical	canonical	0.909
16.500	1.500	structured	1	3	16	central	canonical	canonical	0.738
18.000	1.500	structured	1	3	12	central	canonical	canonical	0.913
19.500	1.500	structured	1	3	16	central	rotated	rotated	1.000
21.000	1.500	structured	1	3	17	boundary	canonical	canonical	0.880
22.500	1.500	structured	1	1	18	boundary	canonical	canonical	0.752
24.000	1.500	structured	1	3	17	boundary	rotated	rotated	1.112
25.500	1.500	structured	1	3	13	central	canonical	canonical	0.934
27.000	1.500	structured	1	3	16	central	canonical	canonical	0.828
28.500	1.500	structured	1	3	12	central	canonical	canonical	0.828
30.000	1.500	structured	1	3	16	central	rotated	rotated	0.987
31.500	1.500	structured	1	3	11	boundary	canonical	canonical	0.977
33.000	1.500	structured	1	3	15	central	canonical	canonical	0.776
34.500	1.500	structured	1	3	17	boundary	canonical	canonical	0.750
36.000	1.500	structured	1	1	18	boundary	canonical	canonical	0.855
37.500	1.500	structured	1	1	2	central	canonical	canonical	0.758
39.000	1.500	structured	1	1	21	central	canonical	canonical	0.742
40.500	1.500	structured	1	1	1	central	canonical	canonical	1.452
42.000	1.500	structured	1	1	18	boundary	canonical	canonical	0.779
43.500	1.500	structured	1	1	21	central	canonical	canonical	0.699
45.000	1.500	structured	1	1	1	central	canonical	canonical	0.888
46.500	1.500	structured	1	1	20	central	canonical	canonical	0.839
48.000	1.500	structured	1	1	1	central	rotated	rotated	1.015
49.500	1.500	structured	1	1	21	central	canonical	canonical	0.757
51.000	1.500	structured	1	1	3	boundary	canonical	rotated	0.861
52.500	1.500	structured	1	1	2	central	canonical	canonical	0.788
54.000	1.500	structured	1	1	3	boundary	rotated	rotated	0.899
55.500	1.500	structured	1	1	1	central	canonical	canonical	0.874
57.000	1.500	structured	1	1	21	central	canonical	canonical	0.815
58.500	1.500	structured	1	1	19	central	canonical	canonical	0.864
60.000	1.500	structured	1	1	20	central	canonical	canonical	0.789
61.500	1.500	structured	1	1	1	central	canonical	canonical	0.918
63.000	1.500	structured	1	1	2	central	canonical	canonical	0.772
64.500	1.500	structured	1	1	19	central	canonical	canonical	0.724
66.000	1.500	structured	1	1	3	boundary	canonical	canonical	0.755
67.500	1.500	structured	1	1	19	central	rotated	rotated	0.978
69.000	1.500	structured	1	1	2	central	canonical	canonical	0.777
70.500	1.500	structured	1	1	21	central	canonical	canonical	0.697
72.000	1.500	structured	1	1	1	central	canonical	canonical	1.175
73.500	1.500	structured	1	1	3	boundary	canonical	canonical	0.886
75.000	1.500	structured	1	2	4	boundary	canonical	canonical	0.853
76.500	1.500	structured	1	2	5	central	canonical	canonical	0.867
78.000	1.500	structured	1	2	6	central	canonical	canonical	0.881
79.500	1.500	structured	1	2	9	central	canonical	canonical	0.804
81.000	1.500	structured	1	2	7	central	canonical	canonical	0.801
82.500	1.500	structured	1	2	8	central	canonical	canonical	0.880
84.000	1.500	structured	1	2	10	boundary	canonical	canonical	0.742
85.500	1.500	structured	1	2	7	central	canonical	canonical	0.733
87.000	1.500	structured	1	2	8	central	canonical	canonical	0.820
88.500	1.500	structured	1	2	4	boundary	canonical	canonical	0.709
90.000	1.500	structured	1	1	3	boundary	canonical	canonical	0.811
91.500	1.500	structured	1	1	20	central	canonical	canonical	0.817
93.000	1.500	structured	1	1	19	central	canonical	canonical	1.105
94.500	1.500	structured	1	1	3	boundary	canonical	canonical	0.817
96.000	1.500	structured	1	1	2	central	canonical	canonical	0.871
97.500	1.500	structured	1	1	18	boundary	canonical	canonical	0.751
99.000	1.500	structured	1	3	17	boundary	canonical	canonical	1.022
100.500	1.500	structured	1	3	15	central	canonical	canonical	0.836
102.000	1.500	structured	1	3	13	central	canonical	canonical	0.781
103.500	1.500	structured	1	3	14	central	canonical	canonical	1.145
105.000	1.500	structured	1	3	16	central	canonical	canonical	0.770
106.500	1.500	structured	1	3	13	central	canonical	canonical	0.721
108.000	1.500	structured	1	3	16	central	rotated	rotated	1.031
109.500	1.500	structured	1	3	14	central	canonical	canonical	1.014
111.000	1.500	structured	1	3	13	central	canonical	canonical	1.133
112.500	1.500	structured	1	3	14	central	rotated	rotated	0.995
114.000	1.500	structured	1	3	12	central	canonical	canonical	0.986
115.500	1.500	structured	1	3	13	central	canonical	canonical	0.882
117.000	1.500	structured	1	3	15	central	canonical	canonical	0.881
118.500	1.500	structured	1	3	11	boundary	canonical	canonical	1.032
120.000	1.500	structured	1	3	13	central	canonical	canonical	0.767
121.500	1.500	structured	1	3	11	boundary	rotated	rotated	0.981
123.000	1.500	structured	1	3	13	central	rotated	rotated	1.470
124.500	1.500	structured	1	3	11	boundary	rotated	rotated	1.059
126.000	1.500	structured	1	3	16	central	canonical	canonical	0.932
127.500	1.500	structured	1	3	11	boundary	rotated	rotated	0.931
129.000	1.500	structured	1	3	12	central	canonical	canonical	0.777
130.500	1.500	structured	1	3	11	boundary	rotated	rotated	0.959
132.000	1.500	structured	1	3	12	central	rotated	rotated	1.134
133.500	1.500	structured	1	3	14	central	canonical	canonical	1.207
135.000	1.500	structured	1	3	17	boundary	canonical	canonical	0.788
136.500	1.500	structured	1	3	13	central	canonical	canonical	0.683
138.000	1.500	structured	1	3	17	boundary	rotated	rotated	1.122
139.500	1.500	structured	1	3	13	central	rotated	rotated	0.947
141.000	1.500	structured	1	3	11	boundary	canonical	canonical	1.116
142.500	1.500	structured	1	3	14	central	canonical	canonical	1.095
144.000	1.500	structured	1	3	15	central	canonical	canonical	0.750
145.500	1.500	structured	1	3	14	central	rotated	rotated	0.830
147.000	1.500	structured	1	3	13	central	canonical	canonical	0.790
148.500	1.500	structured	1	3	16	central	canonical	canonical	0.749
150.000	1.500	structured	1	3	11	boundary	canonical	canonical	0.851
151.500	1.500	structured	1	3	12	central	canonical	canonical	1.322
153.000	1.500	structured	1	3	14	central	canonical	canonical	1.034
154.500	1.500	structured	1	3	16	central	canonical	canonical	0.784
156.000	1.500	structured	1	3	15	central	canonical	canonical	0.792
157.500	1.500	structured	1	3	11	boundary	canonical	canonical	1.054
159.000	1.500	structured	1	3	16	central	canonical	canonical	0.958
160.500	1.500	structured	1	3	11	boundary	rotated	rotated	0.917
162.000	1.500	structured	1	3	14	central	canonical	canonical	0.915
163.500	1.500	structured	1	3	15	central	canonical	rotated	1.481
165.000	1.500	structured	1	3	17	boundary	canonical	canonical	1.304
166.500	1.500	structured	1	3	13	central	canonical	canonical	0.786
168.000	1.500	structured	1	3	11	boundary	canonical	canonical	1.103
169.500	1.500	structured	1	3	15	central	canonical	canonical	0.744
171.000	1.500	structured	1	3	16	central	canonical	canonical	0.798
172.500	1.500	structured	1	3	15	central	rotated	rotated	0.997
174.000	1.500	structured	1	3	14	central	canonical	canonical	0.924
175.500	1.500	structured	1	3	12	central	canonical	canonical	0.698
177.000	1.500	structured	1	3	14	central	rotated	rotated	0.905
178.500	1.500	structured	1	3	15	central	canonical	canonical	0.881
180.000	1.500	structured	1	3	13	central	canonical	canonical	0.791
181.500	1.500	structured	1	3	16	central	canonical	canonical	0.624
183.000	1.500	structured	1	3	14	central	canonical	canonical	1.102
184.500	1.500	structured	1	3	12	central	canonical	canonical	1.060
186.000	1.500	structured	1	3	13	central	canonical	canonical	0.717
187.500	1.500	structured	1	3	15	central	canonical	canonical	0.763
189.000	1.500	structured	1	3	13	central	rotated	rotated	0.962
190.500	1.500	structured	1	3	16	central	canonical	canonical	0.914
192.000	1.500	structured	1	3	11	boundary	canonical	canonical	0.886
193.500	1.500	structured	1	2	10	boundary	canonical	canonical	0.791
195.000	1.500	structured	1	3	11	boundary	rotated	rotated	1.054
196.500	1.500	structured	1	3	16	central	canonical	canonical	0.732
198.000	1.500	structured	1	3	11	boundary	rotated	rotated	0.986
199.500	1.500	structured	1	3	16	central	rotated	rotated	1.115
201.000	1.500	structured	1	3	17	boundary	canonical	canonical	0.914
202.500	1.500	structured	1	1	18	boundary	canonical	canonical	0.874
204.000	1.500	structured	1	1	1	central	canonical	canonical	1.040
205.500	1.500	structured	1	1	2	central	canonical	canonical	0.821
207.000	1.500	structured	1	1	21	central	canonical	canonical	0.774
208.500	1.500	structured	1	1	18	boundary	canonical	canonical	0.830
210.000	1.500	structured	1	3	17	boundary	canonical	canonical	0.899
211.500	1.500	structured	1	3	12	central	canonical	canonical	0.916
213.000	1.500	structured	1	3	15	central	canonical	canonical	0.952
214.500	1.500	structured	1	3	14	central	canonical	canonical	0.985
216.000	1.500	structured	1	3	11	boundary	canonical	canonical	0.758
217.500	1.500	structured	1	3	12	central	canonical	canonical	0.869
219.000	1.500	structured	1	3	16	central	canonical	canonical	0.846
220.500	1.500	structured	1	3	15	central	canonical	canonical	1.052
222.000	1.500	structured	1	3	13	central	canonical	canonical	0.860
223.500	1.500	structured	1	3	12	central	canonical	canonical	0.786
225.000	1.500	structured	1	3	15	central	canonical	canonical	0.745
226.500	1.500	structured	1	3	16	central	canonical	canonical	0.881
228.000	1.500	structured	1	3	11	boundary	canonical	canonical	0.840
229.500	1.500	structured	1	3	16	central	rotated	rotated	0.911
231.000	1.500	structured	1	3	14	central	canonical	canonical	1.172
232.500	1.500	structured	1	3	11	boundary	canonical	canonical	0.948
234.000	1.500	structured	1	3	16	central	canonical	canonical	1.219
235.500	1.500	structured	1	3	11	boundary	rotated	rotated	0.915
237.000	1.500	structured	1	3	13	central	canonical	canonical	1.466
238.500	1.500	structured	1	3	12	central	canonical	canonical	0.808
240.000	1.500	structured	1	3	15	central	canonical	canonical	0.840
241.500	1.500	structured	1	3	14	central	canonical	canonical	0.975
243.000	1.500	structured	1	3	17	boundary	canonical	canonical	0.822
244.500	1.500	structured	1	3	15	central	canonical	canonical	0.956
246.000	1.500	structured	1	3	11	boundary	canonical	canonical	0.796
247.500	1.500	structured	1	3	12	central	canonical	canonical	0.851
249.000	1.500	structured	1	3	15	central	canonical	canonical	1.017
250.500	1.500	structured	1	3	14	central	canonical	canonical	1.204
252.000	1.500	structured	1	3	17	boundary	canonical	canonical	0.888
253.500	1.500	structured	1	3	14	central	rotated	rotated	0.996
255.000	1.500	structured	1	3	17	boundary	rotated	rotated	1.172
256.500	1.500	structured	1	3	15	central	canonical	canonical	0.765
258.000	1.500	structured	1	3	17	boundary	rotated	rotated	1.328
259.500	1.500	structured	1	3	13	central	canonical	canonical	0.800
261.000	1.500	structured	1	3	16	central	canonical	canonical	0.870
262.500	1.500	structured	1	3	12	central	canonical	canonical	1.056
264.000	1.500	structured	1	3	13	central	canonical	canonical	0.708
265.500	1.500	structured	1	3	12	central	rotated	rotated	0.894
267.000	1.500	structured	1	3	11	boundary	canonical	canonical	0.803
268.500	1.500	structured	1	3	15	central	canonical	canonical	0.820
270.000	1.500	structured	1	3	14	central	canonical	canonical	0.912
271.500	1.500	structured	1	3	17	boundary	canonical	canonical	0.873
273.000	1.500	structured	1	3	13	central	canonical	canonical	0.751
274.500	1.500	structured	1	3	11	boundary	canonical	canonical	0.830
276.000	1.500	structured	1	3	16	central	canonical	canonical	0.782
277.500	1.500	structured	1	3	13	central	canonical	canonical	0.733
279.000	1.500	structured	1	3	12	central	canonical	canonical	0.890
280.500	1.500	structured	1	3	17	boundary	canonical	canonical	0.994
282.000	1.500	structured	1	3	16	central	canonical	canonical	0.706
283.500	1.500	structured	1	3	17	boundary	rotated	rotated	0.974
285.000	1.500	structured	1	1	18	boundary	canonical	canonical	0.887
286.500	1.500	structured	1	1	20	central	canonical	canonical	0.783
288.000	1.500	structured	1	1	3	boundary	canonical	canonical	0.790
289.500	1.500	structured	1	2	4	boundary	canonical	canonical	0.813
291.000	1.500	structured	1	2	6	central	canonical	canonical	0.890
292.500	1.500	structured	1	2	9	central	canonical	canonical	0.811
294.000	1.500	structured	1	2	8	central	canonical	canonical	0.810
295.500	1.500	structured	1	2	10	boundary	canonical	canonical	0.754
297.000	1.500	structured	1	3	11	boundary	canonical	canonical	0.704
298.500	1.500	structured	1	3	15	central	canonical	canonical	0.766
300.000	1.500	structured	1	3	17	boundary	canonical	canonical	0.638
301.500	1.500	structured	1	3	13	central	canonical	canonical	0.651
303.000	1.500	structured	1	3	17	boundary	rotated	canonical	1.487
304.500	1.500	structured	1	1	18	boundary	canonical	canonical	0.924
306.000	1.500	structured	1	1	1	central	canonical	canonical	1.186
307.500	1.500	structured	1	1	20	central	canonical	canonical	0.761
309.000	1.500	structured	1	1	1	central	rotated	rotated	0.982
310.500	1.500	structured	1	1	21	central	canonical	canonical	0.815
312.000	1.500	structured	1	1	2	central	canonical	canonical	0.846
313.500	1.500	structured	1	1	3	boundary	canonical	canonical	0.956
315.000	1.500	structured	1	1	21	central	canonical	canonical	0.779
316.500	1.500	structured	1	1	20	central	canonical	canonical	0.771
318.000	1.500	structured	1	1	1	central	canonical	canonical	0.866
319.500	1.500	structured	1	1	18	boundary	canonical	canonical	0.695
321.000	1.500	structured	1	3	17	boundary	canonical	canonical	0.831
322.500	1.500	structured	1	3	13	central	canonical	canonical	0.782
324.000	1.500	structured	1	3	11	boundary	canonical	canonical	0.885
325.500	1.500	structured	1	3	15	central	canonical	canonical	1.083
327.000	1.500	structured	1	3	13	central	canonical	canonical	0.908
328.500	1.500	structured	1	3	14	central	canonical	canonical	1.267
330.000	1.500	structured	1	3	12	central	canonical	canonical	0.683
331.500	1.500	structured	1	3	14	central	rotated	rotated	1.119
333.000	1.500	structured	1	3	16	central	canonical	canonical	0.983
334.500	1.500	structured	1	3	13	central	canonical	canonical	1.014
336.000	1.500	structured	1	3	17	boundary	canonical	canonical	1.084
337.500	1.500	structured	1	3	14	central	canonical	canonical	1.379
339.000	1.500	structured	1	3	12	central	canonical	canonical	0.813
340.500	1.500	structured	1	3	17	boundary	canonical	canonical	0.724
342.000	1.500	structured	1	1	18	boundary	canonical	canonical	0.776
343.500	1.500	structured	1	1	19	central	canonical	canonical	0.835
345.000	1.500	structured	1	1	21	central	canonical	canonical	0.783
346.500	1.500	structured	1	1	3	boundary	canonical	canonical	0.854
348.000	1.500	structured	1	1	19	central	canonical	canonical	0.871
349.500	1.500	structured	1	1	1	central	canonical	canonical	0.972
351.000	1.500	structured	1	1	2	central	canonical	canonical	0.828
352.500	1.500	structured	1	1	21	central	canonical	canonical	0.746
354.000	1.500	structured	1	1	18	boundary	canonical	canonical	0.770
355.500	1.500	structured	1	1	1	central	canonical	canonical	0.743
357.000	1.500	structured	1	1	21	central	canonical	canonical	0.784
358.500	1.500	structured	1	1	2	central	canonical	canonical	0.798
360.000	1.500	structured	1	1	18	boundary	canonical	canonical	0.829
361.500	1.500	structured	1	1	1	central	canonical	canonical	0.846
363.000	1.500	structured	1	1	3	boundary	canonical	canonical	0.786
364.500	1.500	structured	1	1	20	central	canonical	canonical	0.755
366.000	1.500	structured	1	1	18	boundary	canonical	canonical	0.746
367.500	1.500	structured	1	1	20	central	rotated	rotated	1.095
369.000	1.500	structured	1	1	1	central	canonical	canonical	0.952
370.500	1.500	structured	1	1	20	central	rotated	rotated	0.989
372.000	1.500	structured	1	1	19	central	canonical	canonical	0.830
373.500	1.500	structured	1	1	1	central	canonical	canonical	0.868
375.000	1.500	structured	1	1	19	central	rotated	rotated	1.378
376.500	1.500	structured	1	1	3	boundary	canonical	canonical	0.867
378.000	1.500	structured	1	2	4	boundary	canonical	canonical	0.866
379.500	1.500	structured	1	2	7	central	canonical	canonical	0.790
381.000	1.500	structured	1	2	9	central	canonical	canonical	0.770
382.500	1.500	structured	1	2	5	central	canonical	canonical	0.632
384.000	1.500	structured	1	2	6	central	canonical	canonical	0.885
385.500	1.500	structured	1	2	7	central	canonical	canonical	0.795
387.000	1.500	structured	1	2	5	central	canonical	canonical	0.716
388.500	1.500	structured	1	2	4	boundary	canonical	canonical	0.764
390.000	1.500	structured	1	2	8	central	canonical	canonical	1.028
391.500	1.500	structured	1	2	5	central	canonical	canonical	0.962
393.000	1.500	structured	1	2	7	central	canonical	canonical	0.774
394.500	1.500	structured	1	2	9	central	canonical	canonical	0.856
396.000	1.500	structured	1	2	5	central	canonical	canonical	0.996
397.500	1.500	structured	1	2	4	boundary	canonical	canonical	1.044
399.000	1.500	structured	1	2	8	central	canonical	canonical	1.084
400.500	1.500	structured	1	2	9	central	canonical	canonical	0.754
402.000	1.500	structured	1	2	4	boundary	canonical	canonical	0.793
403.500	1.500	structured	1	2	5	central	canonical	canonical	0.736
405.000	1.500	structured	1	2	9	central	canonical	canonical	0.798
406.500	1.500	structured	1	2	8	central	canonical	canonical	0.991
408.000	1.500	structured	1	2	9	central	rotated	rotated	1.060
409.500	1.500	structured	1	2	7	central	canonical	canonical	1.059
411.000	1.500	structured	1	2	10	boundary	canonical	canonical	0.962
412.500	1.500	structured	1	2	7	central	rotated	rotated	1.481
414.000	1.500	structured	1	2	9	central	canonical	canonical	0.976
415.500	1.500	structured	1	2	6	central	canonical	canonical	0.800
417.000	1.500	structured	1	2	8	central	canonical	canonical	1.032
418.500	1.500	structured	1	2	4	boundary	canonical	canonical	0.774
420.000	1.500	structured	1	2	7	central	canonical	canonical	0.828
421.500	1.500	structured	1	2	5	central	canonical	canonical	0.877
423.000	1.500	structured	1	2	8	central	canonical	canonical	0.956
424.500	1.500	structured	1	2	10	boundary	canonical	canonical	1.003
426.000	1.500	structured	1	2	7	central	canonical	canonical	1.034
427.500	1.500	structured	1	2	6	central	canonical	canonical	0.834
429.000	1.500	structured	1	2	8	central	canonical	canonical	0.815
430.500	1.500	structured	1	2	7	central	canonical	canonical	0.935
432.000	1.500	structured	1	2	9	central	canonical	canonical	0.764
433.500	1.500	structured	1	2	4	boundary	canonical	canonical	0.932
435.000	1.500	structured	1	2	8	central	canonical	canonical	0.773
436.500	1.500	structured	1	2	6	central	canonical	canonical	0.780
438.000	1.500	structured	1	2	10	boundary	canonical	canonical	0.753
439.500	1.500	structured	1	2	5	central	canonical	canonical	0.753
441.000	1.500	structured	1	2	9	central	canonical	canonical	0.767
442.500	1.500	structured	1	2	6	central	canonical	canonical	0.759
444.000	1.500	structured	1	2	7	central	canonical	canonical	0.654
445.500	1.500	structured	1	2	6	central	rotated	rotated	0.989
447.000	1.500	structured	1	2	9	central	canonical	canonical	0.893
448.500	1.500	structured	1	2	8	central	canonical	canonical	0.754
450.000	1.500	structured	1	2	5	central	canonical	canonical	0.728
451.500	1.500	structured	1	2	6	central	canonical	canonical	0.865
453.000	1.500	structured	1	2	4	boundary	canonical	canonical	0.648
454.500	1.500	structured	1	2	7	central	canonical	canonical	0.685
456.000	1.500	structured	1	2	9	central	canonical	canonical	0.735
457.500	1.500	structured	1	2	7	central	rotated	rotated	0.901
459.000	1.500	structured	1	2	9	central	rotated	rotated	0.827
460.500	1.500	structured	1	2	6	central	canonical	canonical	0.857
462.000	1.500	structured	1	2	9	central	rotated	rotated	0.857
463.500	1.500	structured	1	2	5	central	canonical	canonical	0.777
465.000	1.500	structured	1	2	10	boundary	canonical	canonical	0.904
466.500	1.500	structured	1	3	11	boundary	canonical	canonical	0.750
468.000	1.500	structured	1	3	16	central	canonical	canonical	0.716
469.500	1.500	structured	1	3	14	central	canonical	canonical	0.627
471.000	1.500	structured	1	3	16	central	rotated	rotated	0.875
