onset	duration	trial_type	block	community	object	object_type	orientation	response	response_time
0.000	1.500	structured	1	1	19	central	canonical	canonical	0.776
1.500	1.500	structured	1	1	20	central	canonical	canonical	0.585
3.000	1.500	structured	1	1	19	central	rotated	rotated	0.652
4.500	1.500	structured	1	1	1	central	canonical	canonical	0.635
6.000	1.500	structured	1	1	3	boundary	canonical	canonical	0.560
7.500	1.500	structured	1	1	19	central	canonical	canonical	0.488
9.000	1.500	structured	1	1	3	boundary	rotated	canonical	0.616
10.500	1.500	structured	1	1	2	central	canonical	canonical	0.521
12.000	1.500	structured	1	1	1	central	canonical	canonical	0.542
13.500	1.500	structured	1	1	3	boundary	canonical	canonical	0.490
15.000	1.500	structured	1	1	20	central	canonical	canonical	0.584
16.500	1.500	structured	1	1	18	boundary	canonical	canonical	0.755
18.000	1.500	structured	1	1	19	central	canonical	canonical	0.571
19.500	1.500	structured	1	1	18	boundary	rotated	rotated	0.599
21.000	1.500	structured	1	1	21	central	canonical	canonical	0.657
22.500	1.500	structured	1	1	3	boundary	canonical	canonical	0.532
24.000	1.500	structured	1	1	1	central	canonical	canonical	0.489
25.500	1.500	structured	1	1	18	boundary	canonical	canonical	0.585
27.000	1.500	structured	1	1	21	central	canonical	canonical	0.561
28.500	1.500	structured	1	1	20	central	canonical	canonical	0.504
30.000	1.500	structured	1	1	21	central	rotated	canonical	0.690
31.500	1.500	structured	1	1	19	central	canonical	canonical	0.477
33.000	1.500	structured	1	1	21	central	rotated	rotated	0.728
34.500	1.500	structured	1	1	19	central	rotated	rotated	0.629
36.000	1.500	structured	1	1	18	boundary	canonical	canonical	0.788
37.500	1.500	structured	1	1	20	central	canonical	canonical	0.583
39.000	1.500	structured	1	1	18	boundary	rotated	rotated	0.640
40.500	1.500	structured	1	3	17	boundary	canonical	canonical	0.629
42.000	1.500	structured	1	3	15	central	canonical	canonical	0.590
43.500	1.500	structured	1	3	17	boundary	rotated	rotated	0.806
45.000	1.500	structured	1	3	12	central	canonical	canonical	0.614
46.500	1.500	structured	1	3	11	boundary	canonical	canonical	0.558
48.000	1.500	structured	1	3	15	central	canonical	canonical	0.526
49.500	1.500	structured	1	3	16	central	canonical	canonical	0.594
51.000	1.500	structured	1	3	17	boundary	canonical	canonical	0.813
52.500	1.500	structured	1	3	13	central	canonical	canonical	0.667
54.000	1.500	structured	1	3	15	central	canonical	canonical	0.537
55.500	1.500	structured	1	3	11	boundary	canonical	canonical	0.516
57.000	1.500	structured	1	3	12	central	canonical	canonical	0.821
58.500	1.500	structured	1	3	11	boundary	rotated	rotated	0.717
60.000	1.500	structured	1	3	12	central	rotated	rotated	0.791
61.500	1.500	structured	1	3	11	boundary	rotated	rotated	0.557
63.000	1.500	structured	1	3	13	central	canonical	canonical	0.826
64.500	1.500	structured	1	3	17	boundary	canonical	canonical	0.682
66.000	1.500	structured	1	3	14	central	canonical	canonical	0.632
67.500	1.500	structured	1	3	13	central	canonical	canonical	0.570
69.000	1.500	structured	1	3	17	boundary	canonical	canonical	0.864
70.500	1.500	structured	1	3	15	central	canonical	canonical	0.704
72.000	1.500	structured	1	3	16	central	canonical	canonical	0.656
73.500	1.500	structured	1	3	11	boundary	canonical	canonical	0.607
75.000	1.500	structured	1	3	15	central	canonical	canonical	0.676
76.500	1.500	structured	1	3	14	central	canonical	canonical	0.617
78.000	1.500	structured	1	3	17	boundary	canonical	canonical	0.586
79.500	1.500	structured	1	3	15	central	canonical	canonical	0.552
81.000	1.500	structured	1	3	16	central	canonical	canonical	0.591
82.500	1.500	structured	1	3	17	boundary	canonical	canonical	0.445
84.000	1.500	structured	1	3	12	central	canonical	canonical	0.489
85.500	1.500	structured	1	3	16	central	canonical	canonical	0.548
87.000	1.500	structured	1	3	12	central	rotated	rotated	0.676
88.500	1.500	structured	1	3	14	central	canonical	canonical	0.774
90.000	1.500	structured	1	3	17	boundary	canonical	canonical	0.621
91.500	1.500	structured	1	3	14	central	rotated	rotated	0.862
93.000	1.500	structured	1	3	15	central	canonical	canonical	0.574
94.500	1.500	structured	1	3	11	boundary	canonical	canonical	0.589
96.000	1.500	structured	1	3	15	central	rotated	canonical	0.513
97.500	1.500	structured	1	3	11	boundary	rotated	rotated	0.892
99.000	1.500	structured	1	3	14	central	canonical	canonical	0.653
100.500	1.500	structured	1	3	12	central	canonical	canonical	0.621
102.000	1.500	structured	1	3	13	central	canonical	canonical	0.640
103.500	1.500	structured	1	3	14	central	canonical	canonical	0.601
105.000	1.500	structured	1	3	12	central	canonical	canonical	0.610
106.500	1.500	structured	1	3	16	central	canonical	canonical	0.713
108.000	1.500	structured	1	3	13	central	canonical	canonical	0.550
109.500	1.500	structured	1	3	12	central	canonical	canonical	0.487
111.000	1.500	structured	1	3	16	central	canonical	canonical	0.519
112.500	1.500	structured	1	3	13	central	canonical	canonical	0.548
114.000	1.500	structured	1	3	12	central	canonical	canonical	0.762
115.500	1.500	structured	1	3	14	central	canonical	canonical	0.675
117.000	1.500	structured	1	3	11	boundary	canonical	canonical	0.733
118.500	1.500	structured	1	3	13	central	canonical	canonical	0.650
120.000	1.500	structured	1	3	16	central	canonical	canonical	0.707
121.500	1.500	structured	1	3	14	central	canonical	canonical	0.600
123.000	1.500	structured	1	3	11	boundary	canonical	canonical	0.579
124.500	1.500	structured	1	3	14	central	rotated	rotated	0.814
126.000	1.500	structured	1	3	15	central	canonical	canonical	0.657
127.500	1.500	structured	1	3	11	boundary	canonical	canonical	0.806
129.000	1.500	structured	1	3	12	central	canonical	canonical	0.733
130.500	1.500	structured	1	3	13	central	canonical	canonical	0.573
132.000	1.500	structured	1	3	14	central	canonical	canonical	0.871
133.500	1.500	structured	1	3	15	central	canonical	canonical	0.635
135.000	1.500	structured	1	3	11	boundary	canonical	canonical	0.571
136.500	1.500	structured	1	3	14	central	canonical	canonical	0.627
138.000	1.500	structured	1	3	16	central	canonical	canonical	0.603
139.500	1.500	structured	1	3	12	central	canonical	canonical	0.545
141.000	1.500	structured	1	3	13	central	canonical	canonical	0.637
142.500	1.500	structured	1	3	11	boundary	canonical	canonical	0.543
144.000	1.500	structured	1	3	13	central	rotated	canonical	0.706
145.500	1.500	structured	1	3	14	central	canonical	canonical	0.642
147.000	1.500	structured	1	3	11	boundary	canonical	canonical	0.588
148.500	1.500	structured	1	3	12	central	canonical	canonical	0.684
150.000	1.500	structured	1	3	11	boundary	rotated	rotated	1.051
151.500	1.500	structured	1	3	14	central	canonical	canonical	0.654
153.000	1.500	structured	1	3	16	central	canonical	canonical	0.622
154.500	1.500	structured	1	3	14	central	rotated	rotated	0.685
156.000	1.500	structured	1	3	11	boundary	canonical	canonical	0.658
157.500	1.500	structured	1	3	14	central	rotated	rotated	0.935
159.000	1.500	structured	1	3	13	central	canonical	canonical	0.623
160.500	1.500	structured	1	3	16	central	canonical	canonical	0.610
162.000	1.500	structured	1	3	11	boundary	canonical	canonical	0.665
163.500	1.500	structured	1	3	16	central	rotated	rotated	0.697
165.000	1.500	structured	1	3	17	boundary	canonical	canonical	0.650
166.500	1.500	structured	1	3	15	central	canonical	canonical	0.496
168.000	1.500	structured	1	3	17	boundary	rotated	rotated	0.904
169.500	1.500	structured	1	3	16	central	canonical	canonical	0.637
171.000	1.500	structured	1	3	12	central	canonical	canonical	0.834
172.500	1.500	structured	1	3	16	central	rotated	canonical	0.779
174.000	1.500	structured	1	3	15	central	canonical	canonical	0.743
175.500	1.500	structured	1	3	16	central	rotated	rotated	0.819
177.000	1.500	structured	1	3	14	central	canonical	canonical	1.060
178.500	1.500	structured	1	3	11	boundary	canonical	canonical	0.724
180.000	1.500	structured	1	3	15	central	canonical	canonical	0.692
181.500	1.500	structured	1	3	11	boundary	rotated	rotated	0.708
183.000	1.500	structured	1	3	15	central	rotated	rotated	0.708
184.500	1.500	structured	1	3	16	central	canonical	canonical	0.624
186.000	1.500	structured	1	3	15	central	rotated	rotated	0.782
187.500	1.500	structured	1	3	14	central	canonical	canonical	0.652
189.000	1.500	structured	1	3	16	central	canonical	canonical	0.721
190.500	1.500	structured	1	3	17	boundary	canonical	canonical	0.738
192.000	1.500	structured	1	1	18	boundary	canonical	canonical	0.715
193.500	1.500	structured	1	1	1	central	canonical	canonical	0.714
195.000	1.500	structured	1	1	3	boundary	canonical	canonical	0.596
196.500	1.500	structured	1	1	2	central	canonical	canonical	0.832
198.000	1.500	structured	1	1	19	central	canonical	canonical	0.621
199.500	1.500	structured	1	1	1	central	canonical	canonical	0.631
201.000	1.500	structured	1	1	3	boundary	canonical	canonical	0.679
202.500	1.500	structured	1	2	4	boundary	canonical	canonical	0.504
204.000	1.500	structured	1	2	6	central	canonical	canonical	0.513
205.500	1.500	structured	1	2	5	central	canonical	canonical	0.549
207.000	1.500	structured	1	2	6	central	rotated	rotated	0.685
208.500	1.500	structured	1	2	9	central	canonical	canonical	0.621
210.000	1.500	structured	1	2	6	central	rotated	rotated	0.795
211.500	1.500	structured	1	2	7	central	canonical	canonical	0.649
213.000	1.500	structured	1	2	10	boundary	canonical	canonical	0.514
214.500	1.500	structured	1	2	8	central	canonical	canonical	0.600
216.000	1.500	structured	1	2	7	central	canonical	canonical	0.578
217.500	1.500	structured	1	2	10	boundary	canonical	canonical	0.532
219.000	1.500	structured	1	2	6	central	canonical	canonical	0.526
220.500	1.500	structured	1	2	8	central	canonical	canonical	0.590
222.000	1.500	structured	1	2	4	boundary	canonical	canonical	0.504
223.500	1.500	structured	1	2	5	central	canonical	canonical	0.595
225.000	1.500	structured	1	2	6	central	canonical	canonical	0.515
226.500	1.500	structured	1	2	9	central	canonical	canonical	0.838
228.000	1.500	structured	1	2	4	boundary	canonical	canonical	0.557
229.500	1.500	structured	1	2	6	central	canonical	canonical	0.610
231.000	1.500	structured	1	2	10	boundary	canonical	canonical	0.653
232.500	1.500	structured	1	2	9	central	canonical	canonical	0.592
234.000	1.500	structured	1	2	8	central	canonical	canonical	0.817
235.500	1.500	structured	1	2	7	central	canonical	canonical	0.631
237.000	1.500	structured	1	2	10	boundary	canonical	canonical	0.718
238.500	1.500	structured	1	2	8	central	canonical	canonical	0.684
240.000	1.500	structured	1	2	10	boundary	rotated	rotated	1.056
241.500	1.500	structured	1	2	8	central	rotated	rotated	0.686
243.000	1.500	structured	1	2	9	central	canonical	canonical	0.615
244.500	1.500	structured	1	2	10	boundary	canonical	canonical	0.813
246.000	1.500	structured	1	2	6	central	canonical	canonical	0.619
247.500	1.500	structured	1	2	7	central	canonical	canonical	0.631
249.000	1.500	structured	1	2	10	boundary	canonical	canonical	0.803
250.500	1.500	structured	1	2	5	central	canonical	canonical	0.623
252.000	1.500	structured	1	2	9	central	canonical	canonical	0.515
253.500	1.500	structured	1	2	10	boundary	canonical	canonical	0.697
255.000	1.500	structured	1	2	9	central	rotated	rotated	0.675
256.500	1.500	structured	1	2	10	boundary	rotated	rotated	0.831
258.000	1.500	structured	1	2	7	central	canonical	canonical	0.679
259.500	1.500	structured	1	2	6	central	canonical	canonical	0.622
261.000	1.500	structured	1	2	4	boundary	canonical	canonical	0.794
262.500	1.500	structured	1	2	6	central	rotated	rotated	0.794
264.000	1.500	structured	1	2	7	central	canonical	canonical	0.774
265.500	1.500	structured	1	2	6	central	rotated	rotated	1.247
267.000	1.500	structured	1	2	5	central	canonical	canonical	0.676
268.500	1.500	structured	1	2	8	central	canonical	canonical	0.574
270.000	1.500	structured	1	2	4	boundary	canonical	canonical	0.561
271.500	1.500	structured	1	2	8	central	rotated	canonical	0.604
273.000	1.500	structured	1	2	9	central	canonical	canonical	0.620
274.500	1.500	structured	1	2	6	central	canonical	canonical	0.593
276.000	1.500	structured	1	2	4	boundary	canonical	canonical	0.514
277.500	1.500	structured	1	1	3	boundary	canonical	canonical	0.613
279.000	1.500	structured	1	1	20	central	canonical	canonical	0.644
280.500	1.500	structured	1	1	18	boundary	canonical	canonical	0.746
282.000	1.500	structured	1	1	2	central	canonical	canonical	0.971
283.500	1.500	structured	1	1	21	central	canonical	canonical	1.074
285.000	1.500	structured	1	1	19	central	canonical	canonical	0.966
286.500	1.500	structured	1	1	20	central	canonical	canonical	0.803
288.000	1.500	structured	1	1	19	central	rotated	rotated	0.725
289.500	1.500	structured	1	1	1	central	canonical	canonical	0.683
291.000	1.500	structured	1	1	3	boundary	canonical	canonical	0.801
292.500	1.500	structured	1	1	1	central	rotated	rotated	0.695
294.000	1.500	structured	1	1	21	central	canonical	canonical	0.935
295.500	1.500	structured	1	1	2	central	canonical	canonical	0.716
297.000	1.500	structured	1	1	1	central	canonical	canonical	0.643
298.500	1.500	structured	1	1	18	boundary	canonical	canonical	0.825
300.000	1.500	structured	1	1	1	central	rotated	rotated	0.747
301.500	1.500	structured	1	1	20	central	canonical	canonical	0.645
303.000	1.500	structured	1	1	18	boundary	canonical	canonical	0.818
304.500	1.500	structured	1	1	21	central	canonical	canonical	0.785
306.000	1.500	structured	1	1	1	central	canonical	canonical	0.692
307.500	1.500	structured	1	1	18	boundary	canonical	canonical	0.902
309.000	1.500	structured	1	1	2	central	canonical	canonical	0.714
310.500	1.500	structured	1	1	3	boundary	canonical	canonical	0.748
312.000	1.500	structured	1	1	20	central	canonical	canonical	0.701
313.500	1.500	structured	1	1	1	central	canonical	canonical	0.655
315.000	1.500	structured	1	1	18	boundary	canonical	canonical	0.581
316.500	1.500	structured	1	1	2	central	canonical	canonical	0.573
318.000	1.500	structured	1	1	21	central	canonical	canonical	0.522
319.500	1.500	structured	1	1	19	central	canonical	canonical	0.629
321.000	1.500	structured	1	1	18	boundary	canonical	canonical	0.628
322.500	1.500	structured	1	1	19	central	rotated	canonical	0.584
324.000	1.500	structured	1	1	2	central	canonical	canonical	0.611
325.500	1.500	structured	1	1	18	boundary	canonical	canonical	0.579
327.000	1.500	structured	1	1	19	central	canonical	canonical	0.604
328.500	1.500	structured	1	1	18	boundary	rotated	rotated	0.715
330.000	1.500	structured	1	1	21	central	canonical	canonical	0.590
331.500	1.500	structured	1	1	1	central	canonical	canonical	0.721
333.000	1.500	structured	1	1	20	central	canonical	canonical	0.596
334.500	1.500	structured	1	1	21	central	canonical	canonical	0.837
336.000	1.500	structured	1	1	1	central	canonical	canonical	0.677
337.500	1.500	structured	1	1	18	boundary	canonical	canonical	0.787
339.000	1.500	structured	1	1	2	central	canonical	canonical	0.874
340.500	1.500	structured	1	1	21	central	canonical	canonical	0.624
342.000	1.500	structured	1	1	1	central	canonical	canonical	0.839
343.500	1.500	structured	1	1	2	central	canonical	canonical	0.650
345.000	1.500	structured	1	1	3	boundary	canonical	canonical	0.686
346.500	1.500	structured	1	2	4	boundary	canonical	canonical	0.655
348.000	1.500	structured	1	2	6	central	canonical	canonical	0.850
349.500	1.500	structured	1	2	10	boundary	canonical	canonical	0.804
351.000	1.500	structured	1	3	11	boundary	canonical	canonical	0.574
352.500	1.500	structured	1	3	13	central	canonical	canonical	0.624
354.000	1.500	structured	1	3	11	boundary	rotated	canonical	0.733
355.500	1.500	structured	1	3	15	central	canonical	canonical	0.679
357.000	1.500	structured	1	3	12	central	canonical	canonical	0.669
358.500	1.500	structured	1	3	11	boundary	canonical	canonical	0.973
360.000	1.500	structured	1	2	10	boundary	canonical	canonical	0.661
361.500	1.500	structured	1	3	11	boundary	rotated	rotated	0.677
363.000	1.500	structured	1	3	15	central	canonical	canonical	0.587
364.500	1.500	structured	1	3	13	central	canonical	canonical	0.788
366.000	1.500	structured	1	3	15	central	rotated	rotated	1.132
367.500	1.500	structured	1	3	14	central	canonical	canonical	0.737
369.000	1.500	structured	1	3	12	central	canonical	canonical	0.743
370.500	1.500	structured	1	3	15	central	canonical	canonical	0.877
372.000	1.500	structured	1	3	11	boundary	canonical	canonical	0.895
373.500	1.500	structured	1	3	15	central	rotated	rotated	0.890
375.000	1.500	structured	1	3	17	boundary	canonical	canonical	0.743
376.500	1.500	structured	1	3	15	central	rotated	rotated	0.876
378.000	1.500	structured	1	3	17	boundary	rotated	rotated	1.324
379.500	1.500	structured	1	3	15	central	rotated	rotated	0.730
381.000	1.500	structured	1	3	11	boundary	canonical	canonical	0.652
382.500	1.500	structured	1	3	16	central	canonical	canonical	1.205
384.000	1.500	structured	1	3	14	central	canonical	canonical	1.465
385.500	1.500	structured	1	3	16	central	rotated	rotated	1.071
387.000	1.500	structured	1	3	14	central	rotated	canonical	0.584
388.500	1.500	structured	1	3	12	central	canonical	canonical	0.802
390.000	1.500	structured	1	3	17	boundary	canonical	canonical	0.699
391.500	1.500	structured	1	3	14	central	canonical	canonical	0.648
393.000	1.500	structured	1	3	16	central	canonical	canonical	0.665
394.500	1.500	structured	1	3	13	central	canonical	canonical	0.658
396.000	1.500	structured	1	3	11	boundary	canonical	canonical	0.833
397.500	1.500	structured	1	3	16	central	canonical	canonical	0.710
399.000	1.500	structured	1	3	17	boundary	canonical	canonical	0.758
400.500	1.500	structured	1	1	18	boundary	canonical	canonical	1.151
402.000	1.500	structured	1	1	2	central	canonical	canonical	0.721
403.500	1.500	structured	1	1	19	central	canonical	canonical	0.747
405.000	1.500	structured	1	1	1	central	canonical	canonical	0.770
406.500	1.500	structured	1	1	21	central	canonical	canonical	0.659
408.000	1.500	structured	1	1	1	central	rotated	rotated	1.147
409.500	1.500	structured	1	1	21	central	rotated	rotated	0.917
411.000	1.500	structured	1	1	18	boundary	canonical	canonical	0.669
412.500	1.500	structured	1	1	20	central	canonical	canonical	0.626
414.000	1.500	structured	1	1	19	central	canonical	canonical	0.822
415.500	1.500	structured	1	1	21	central	canonical	canonical	1.258
417.000	1.500	structured	1	1	1	central	canonical	canonical	0.765
418.500	1.500	structured	1	1	21	central	rotated	rotated	0.843
420.000	1.500	structured	1	1	3	boundary	canonical	canonical	1.062
421.500	1.500	structured	1	1	19	central	canonical	canonical	0.966
423.000	1.500	structured	1	1	3	boundary	rotated	rotated	0.703
424.500	1.500	structured	1	2	4	boundary	canonical	canonical	0.753
426.000	1.500	structured	1	1	3	boundary	rotated	rotated	0.812
427.500	1.500	structured	1	1	1	central	canonical	canonical	1.176
429.000	1.500	structured	1	1	18	boundary	canonical	canonical	0.683
430.500	1.500	structured	1	1	20	central	canonical	canonical	0.696
432.000	1.500	structured	1	1	2	central	canonical	canonical	0.622
433.500	1.500	structured	1	1	3	boundary	canonical	canonical	0.579
435.000	1.500	structured	1	1	20	central	canonical	canonical	0.630
436.500	1.500	structured	1	1	1	central	canonical	canonical	0.680
438.000	1.500	structured	1	1	2	central	canonical	canonical	0.759
439.500	1.500	structured	1	1	21	central	canonical	canonical	0.768
441.000	1.500	structured	1	1	3	boundary	canonical	canonical	0.704
442.500	1.500	structured	1	1	19	central	canonical	canonical	1.029
444.000	1.500	structured	1	1	20	central	canonical	canonical	0.646
445.500	1.500	structured	1	1	3	boundary	canonical	canonical	0.872
447.000	1.500	structured	1	1	1	central	canonical	canonical	0.908
448.500	1.500	structured	1	1	2	central	canonical	canonical	0.564
450.000	1.500	structured	1	1	3	boundary	canonical	canonical	0.560
451.500	1.500	structured	1	2	4	boundary	canonical	canonical	0.609
453.000	1.500	structured	1	1	3	boundary	rotated	rotated	1.068
454.500	1.500	structured	1	1	2	central	canonical	canonical	0.703
456.000	1.500	structured	1	1	20	central	canonical	canonical	1.493
457.500	1.500	structured	1	1	3	boundary	canonical	canonical	1.224
459.000	1.500	structured	1	1	2	central	canonical	canonical	0.598
460.500	1.500	structured	1	1	21	central	canonical	canonical	0.604
462.000	1.500	structured	1	1	18	boundary	canonical	canonical	0.537
463.500	1.500	structured	1	3	17	boundary	canonical	canonical	0.675
465.000	1.500	structured	1	3	12	central	canonical	canonical	0.666
466.500	1.500	structured	1	3	17	boundary	rotated	rotated	0.754
468.000	1.500	structured	1	3	16	central	canonical	canonical	0.580
469.500	1.500	structured	1	3	12	central	canonical	canonical	0.533
471.000	1.500	structured	1	3	16	central	rotated	rotated	0.638
