onset	duration	trial_type	block	community	object	object_type	orientation	response	response_time
4.000	1.000	structured	1	1	2	central	rotated	n/a	n/a
10.000	1.000	structured	1	1	19	central	canonical	n/a	n/a
14.000	1.000	structured	1	1	3	boundary	canonical	canonical	0.739
18.000	1.000	structured	1	1	21	central	canonical	canonical	0.635
24.000	1.000	structured	1	1	19	central	canonical	canonical	0.676
28.000	1.000	structured	1	1	1	central	canonical	canonical	0.688
30.000	1.000	structured	1	1	3	boundary	canonical	canonical	0.573
36.000	1.000	structured	1	2	4	boundary	canonical	canonical	0.524
42.000	1.000	structured	1	1	3	boundary	rotated	rotated	0.736
48.000	1.000	structured	1	1	2	central	canonical	canonical	0.905
54.000	1.000	structured	1	1	20	central	canonical	canonical	0.613
58.000	1.000	structured	1	1	18	boundary	canonical	canonical	0.627
62.000	1.000	structured	1	1	19	central	canonical	canonical	0.634
64.000	1.000	structured	1	1	3	boundary	canonical	canonical	0.573
70.000	1.000	structured	1	1	20	central	canonical	canonical	0.608
76.000	1.000	structured	1	1	19	central	canonical	canonical	0.531
82.000	1.000	structured	1	1	20	central	rotated	rotated	0.797
86.000	1.000	structured	1	1	2	central	canonical	canonical	0.718
90.000	1.000	structured	1	1	19	central	canonical	canonical	0.697
96.000	1.000	structured	1	1	20	central	canonical	canonical	0.731
98.000	1.000	structured	1	1	3	boundary	canonical	canonical	0.735
104.000	1.000	scrambled	2	3	13	central	canonical	canonical	0.742
110.000	1.000	scrambled	2	2	6	central	canonical	canonical	0.681
116.000	1.000	scrambled	2	2	10	boundary	canonical	canonical	0.605
120.000	1.000	scrambled	2	3	15	central	canonical	canonical	0.856
122.000	1.000	scrambled	2	3	16	central	canonical	canonical	0.910
124.000	1.000	scrambled	2	2	9	central	canonical	canonical	0.674
126.000	1.000	scrambled	2	1	19	central	canonical	canonical	0.744
132.000	1.000	scrambled	2	1	18	boundary	canonical	canonical	0.694
138.000	1.000	scrambled	2	1	3	boundary	canonical	canonical	0.607
142.000	1.000	scrambled	2	1	2	central	canonical	canonical	0.768
146.000	1.000	scrambled	2	3	14	central	canonical	canonical	0.616
148.000	1.000	scrambled	2	3	17	boundary	canonical	canonical	0.702
152.000	1.000	scrambled	2	2	7	central	canonical	canonical	0.766
156.000	1.000	scrambled	2	2	5	central	canonical	canonical	0.559
158.000	1.000	scrambled	2	2	4	boundary	canonical	canonical	0.642
164.000	1.000	scrambled	2	2	8	central	canonical	canonical	0.592
168.000	1.000	scrambled	2	1	21	central	canonical	canonical	0.508
172.000	1.000	scrambled	2	1	20	central	canonical	canonical	0.543
178.000	1.000	scrambled	2	1	1	central	canonical	canonical	0.535
180.000	1.000	scrambled	2	3	11	boundary	canonical	canonical	0.618
182.000	1.000	scrambled	2	3	12	central	canonical	canonical	0.616
188.000	1.000	structured	3	3	13	central	canonical	canonical	0.614
194.000	1.000	structured	3	3	11	boundary	canonical	canonical	0.577
198.000	1.000	structured	3	3	16	central	canonical	canonical	0.731
200.000	1.000	structured	3	3	13	central	canonical	canonical	0.703
206.000	1.000	structured	3	3	17	boundary	canonical	canonical	0.631
208.000	1.000	structured	3	3	13	central	rotated	rotated	0.850
214.000	1.000	structured	3	3	14	central	canonical	canonical	0.677
216.000	1.000	structured	3	3	11	boundary	canonical	canonical	0.748
218.000	1.000	structured	3	3	15	central	canonical	canonical	0.831
222.000	1.000	structured	3	3	13	central	canonical	canonical	0.664
226.000	1.000	structured	3	3	16	central	canonical	canonical	0.597
228.000	1.000	structured	3	3	14	central	canonical	canonical	0.583
232.000	1.000	structured	3	3	17	boundary	canonical	canonical	0.651
234.000	1.000	structured	3	3	15	central	canonical	canonical	0.526
238.000	1.000	structured	3	3	14	central	canonical	canonical	0.524
240.000	1.000	structured	3	3	16	central	canonical	canonical	0.594
242.000	1.000	structured	3	3	13	central	canonical	canonical	0.594
246.000	1.000	structured	3	3	11	boundary	canonical	canonical	0.670
248.000	1.000	structured	3	3	13	central	rotated	rotated	0.723
252.000	1.000	structured	3	3	14	central	canonical	canonical	0.596
258.000	1.000	structured	3	3	13	central	rotated	rotated	0.746
260.000	1.000	structured	4	3	15	central	canonical	canonical	0.738
264.000	1.000	structured	4	3	11	boundary	canonical	canonical	0.648
268.000	1.000	structured	4	3	15	central	rotated	rotated	0.765
274.000	1.000	structured	4	3	16	central	canonical	canonical	0.681
278.000	1.000	structured	4	3	14	central	canonical	canonical	0.689
282.000	1.000	structured	4	3	17	boundary	canonical	canonical	0.665
284.000	1.000	structured	4	3	13	central	canonical	canonical	0.702
286.000	1.000	structured	4	3	17	boundary	rotated	rotated	0.756
292.000	1.000	structured	4	1	18	boundary	canonical	canonical	0.668
298.000	1.000	structured	4	1	2	central	canonical	canonical	0.851
300.000	1.000	structured	4	1	20	central	canonical	canonical	0.688
306.000	1.000	structured	4	1	2	central	rotated	rotated	0.719
308.000	1.000	structured	4	1	3	boundary	canonical	canonical	0.727
312.000	1.000	structured	4	1	2	central	rotated	rotated	0.992
316.000	1.000	structured	4	1	3	boundary	rotated	n/a	n/a
318.000	1.000	structured	4	1	1	central	canonical	canonical	0.735
322.000	1.000	structured	4	1	19	central	canonical	canonical	0.876
328.000	1.000	structured	4	1	20	central	canonical	canonical	0.666
334.000	1.000	structured	4	1	1	central	canonical	canonical	0.564
336.000	1.000	structured	4	1	2	central	canonical	canonical	0.678
340.000	1.000	structured	4	1	3	boundary	canonical	canonical	0.653
346.000	1.000	scrambled	5	2	6	central	canonical	canonical	0.665
348.000	1.000	scrambled	5	3	12	central	canonical	canonical	0.727
354.000	1.000	scrambled	5	3	15	central	canonical	canonical	0.730
360.000	1.000	scrambled	5	3	14	central	canonical	canonical	0.584
362.000	1.000	scrambled	5	2	7	central	canonical	canonical	0.717
368.000	1.000	scrambled	5	1	1	central	canonical	n/a	n/a
372.000	1.000	scrambled	5	1	21	central	canonical	canonical	0.604
374.000	1.000	scrambled	5	2	5	central	canonical	canonical	0.601
380.000	1.000	scrambled	5	1	3	boundary	canonical	canonical	0.670
384.000	1.000	scrambled	5	2	4	boundary	canonical	canonical	0.604
390.000	1.000	scrambled	5	2	10	boundary	canonical	canonical	0.584
396.000	1.000	scrambled	5	1	19	central	canonical	canonical	0.590
398.000	1.000	scrambled	5	1	2	central	canonical	canonical	0.770
400.000	1.000	scrambled	5	1	18	boundary	canonical	canonical	0.598
402.000	1.000	scrambled	5	3	13	central	canonical	canonical	0.993
404.000	1.000	scrambled	5	3	17	boundary	canonical	canonical	0.616
406.000	1.000	scrambled	5	3	16	central	canonical	canonical	0.546
408.000	1.000	scrambled	5	3	11	boundary	canonical	canonical	0.619
412.000	1.000	scrambled	5	2	9	central	canonical	canonical	0.654
416.000	1.000	scrambled	5	2	8	central	canonical	canonical	0.623
420.000	1.000	scrambled	5	1	20	central	canonical	canonical	0.625
424.000	1.000	structured	6	1	1	central	canonical	canonical	0.590
430.000	1.000	structured	6	1	19	central	canonical	canonical	0.599
434.000	1.000	structured	6	1	18	boundary	canonical	canonical	0.465
440.000	1.000	structured	6	3	17	boundary	canonical	canonical	0.786
446.000	1.000	structured	6	3	13	central	canonical	canonical	0.553
452.000	1.000	structured	6	3	16	central	canonical	canonical	0.532
456.000	1.000	structured	6	3	11	boundary	canonical	canonical	0.578
460.000	1.000	structured	6	3	12	central	canonical	canonical	0.583
464.000	1.000	structured	6	3	11	boundary	rotated	rotated	0.979
466.000	1.000	structured	6	3	14	central	canonical	canonical	0.591
468.000	1.000	structured	6	3	15	central	canonical	canonical	0.569
472.000	1.000	structured	6	3	13	central	canonical	canonical	0.580
478.000	1.000	structured	6	3	17	boundary	canonical	canonical	0.706
482.000	1.000	structured	6	3	14	central	canonical	canonical	0.622
484.000	1.000	structured	6	3	13	central	canonical	canonical	0.697
486.000	1.000	structured	6	3	16	central	canonical	canonical	0.581
488.000	1.000	structured	6	3	15	central	canonical	canonical	0.518
492.000	1.000	structured	6	3	16	central	rotated	rotated	0.923
498.000	1.000	structured	6	3	13	central	canonical	canonical	0.601
502.000	1.000	structured	6	3	12	central	canonical	canonical	0.653
504.000	1.000	structured	6	3	15	central	canonical	canonical	0.633
510.000	1.000	structured	7	3	11	boundary	canonical	canonical	0.841
514.000	1.000	structured	7	3	15	central	rotated	rotated	0.681
520.000	1.000	structured	7	3	17	boundary	canonical	canonical	0.685
526.000	1.000	structured	7	1	18	boundary	canonical	canonical	0.657
532.000	1.000	structured	7	1	21	central	canonical	canonical	0.685
534.000	1.000	structured	7	1	3	boundary	canonical	canonical	0.668
536.000	1.000	structured	7	1	21	central	rotated	rotated	0.779
538.000	1.000	structured	7	1	18	boundary	canonical	canonical	0.652
540.000	1.000	structured	7	1	21	central	rotated	rotated	0.921
542.000	1.000	structured	7	1	20	central	canonical	canonical	0.930
548.000	1.000	structured	7	1	2	central	canonical	canonical	0.779
552.000	1.000	structured	7	1	19	central	canonical	canonical	0.768
554.000	1.000	structured	7	1	2	central	rotated	rotated	0.921
558.000	1.000	structured	7	1	18	boundary	canonical	canonical	0.627
564.000	1.000	structured	7	1	19	central	canonical	canonical	0.664
566.000	1.000	structured	7	1	21	central	canonical	canonical	0.635
572.000	1.000	structured	7	1	18	boundary	canonical	canonical	0.663
576.000	1.000	structured	7	3	17	boundary	canonical	canonical	0.628
580.000	1.000	structured	7	1	18	boundary	rotated	rotated	0.808
584.000	1.000	structured	7	1	19	central	canonical	canonical	0.659
590.000	1.000	structured	7	1	1	central	canonical	canonical	0.678
