onset	duration	trial_type	path_type	community	object	object_type	response	response_time
0.000	1.500	structured	structured	2	8	central	0	n/a
1.500	1.500	structured	structured	2	4	boundary	0	n/a
3.000	1.500	structured	structured	2	5	central	0	n/a
4.500	1.500	structured	structured	2	7	central	0	n/a
6.000	1.500	structured	structured	2	9	central	0	n/a
7.500	1.500	structured	structured	2	5	central	0	n/a
9.000	1.500	structured	structured	2	4	boundary	0	n/a
10.500	1.500	structured	structured	2	7	central	0	n/a
12.000	1.500	structured	structured	2	5	central	0	n/a
13.500	1.500	structured	structured	2	6	central	1	1.383
15.000	1.500	structured	structured	2	8	central	0	n/a
16.500	1.500	structured	structured	2	9	central	0	n/a
18.000	1.500	structured	structured	2	6	central	0	n/a
19.500	1.500	structured	structured	2	5	central	0	n/a
21.000	1.500	structured	structured	2	6	central	1	0.572
22.500	1.500	structured	structured	2	10	boundary	1	0.827
24.000	1.500	structured	structured	2	9	central	0	n/a
25.500	1.500	structured	structured	2	5	central	0	n/a
27.000	1.500	structured	structured	2	7	central	1	1.248
28.500	1.500	structured	structured	2	6	central	1	0.673
30.000	1.500	structured	structured	2	10	boundary	1	0.646
31.500	1.500	hamiltonian	forward	3	11	boundary	0	n/a
33.000	1.500	hamiltonian	forward	3	12	central	0	n/a
34.500	1.500	hamiltonian	forward	3	13	central	1	0.605
36.000	1.500	hamiltonian	forward	3	14	central	0	n/a
37.500	1.500	hamiltonian	forward	3	15	central	0	n/a
39.000	1.500	hamiltonian	forward	3	16	central	1	0.652
40.500	1.500	hamiltonian	forward	3	17	boundary	0	n/a
42.000	1.500	hamiltonian	forward	1	18	boundary	1	0.717
43.500	1.500	hamiltonian	forward	1	19	central	0	n/a
45.000	1.500	hamiltonian	forward	1	20	central	0	n/a
46.500	1.500	hamiltonian	forward	1	21	central	0	n/a
48.000	1.500	hamiltonian	forward	1	1	central	0	n/a
49.500	1.500	hamiltonian	forward	1	2	central	0	n/a
51.000	1.500	hamiltonian	forward	1	3	boundary	0	n/a
52.500	1.500	hamiltonian	forward	2	4	boundary	0	n/a
54.000	1.500	hamiltonian	forward	2	5	central	0	n/a
55.500	1.500	hamiltonian	forward	2	6	central	1	0.685
57.000	1.500	hamiltonian	forward	2	7	central	1	0.841
58.500	1.500	hamiltonian	forward	2	8	central	0	n/a
60.000	1.500	hamiltonian	forward	2	9	central	0	n/a
61.500	1.500	hamiltonian	forward	2	10	boundary	1	0.769
63.000	1.500	structured	structured	2	5	central	0	n/a
64.500	1.500	structured	structured	2	7	central	1	0.738
66.000	1.500	structured	structured	2	4	boundary	0	n/a
67.500	1.500	structured	structured	2	5	central	0	n/a
69.000	1.500	structured	structured	2	8	central	0	n/a
70.500	1.500	structured	structured	2	6	central	1	0.729
72.000	1.500	structured	structured	2	10	boundary	1	0.692
73.500	1.500	structured	structured	2	9	central	0	n/a
75.000	1.500	structured	structured	2	5	central	0	n/a
76.500	1.500	structured	structured	2	7	central	1	0.810
78.000	1.500	structured	structured	2	8	central	0	n/a
79.500	1.500	structured	structured	2	10	boundary	1	0.671
81.000	1.500	structured	structured	3	11	boundary	0	n/a
82.500	1.500	structured	structured	3	15	central	0	n/a
84.000	1.500	structured	structured	3	14	central	0	n/a
85.500	1.500	structured	structured	3	13	central	1	0.740
87.000	1.500	structured	structured	3	15	central	0	n/a
88.500	1.500	structured	structured	3	11	boundary	0	n/a
90.000	1.500	structured	structured	3	16	central	1	0.601
91.500	1.500	structured	structured	3	15	central	0	n/a
93.000	1.500	structured	structured	3	11	boundary	0	n/a
94.500	1.500	hamiltonian	forward	3	12	central	0	n/a
96.000	1.500	hamiltonian	forward	3	13	central	1	0.596
97.500	1.500	hamiltonian	forward	3	14	central	0	n/a
99.000	1.500	hamiltonian	forward	3	15	central	0	n/a
100.500	1.500	hamiltonian	forward	3	16	central	1	0.657
102.000	1.500	hamiltonian	forward	3	17	boundary	0	n/a
103.500	1.500	hamiltonian	forward	1	18	boundary	1	0.953
105.000	1.500	hamiltonian	forward	1	19	central	0	n/a
106.500	1.500	hamiltonian	forward	1	20	central	0	n/a
108.000	1.500	hamiltonian	forward	1	21	central	0	n/a
109.500	1.500	hamiltonian	forward	1	1	central	0	n/a
111.000	1.500	hamiltonian	forward	1	2	central	0	n/a
112.500	1.500	hamiltonian	forward	1	3	boundary	0	n/a
114.000	1.500	hamiltonian	forward	2	4	boundary	0	n/a
115.500	1.500	hamiltonian	forward	2	5	central	0	n/a
117.000	1.500	hamiltonian	forward	2	6	central	1	0.756
118.500	1.500	hamiltonian	forward	2	7	central	0	n/a
120.000	1.500	hamiltonian	forward	2	8	central	0	n/a
121.500	1.500	hamiltonian	forward	2	9	central	0	n/a
123.000	1.500	hamiltonian	forward	2	10	boundary	1	0.968
124.500	1.500	hamiltonian	forward	3	11	boundary	0	n/a
126.000	1.500	structured	structured	3	16	central	1	0.696
127.500	1.500	structured	structured	3	11	boundary	0	n/a
129.000	1.500	structured	structured	3	14	central	0	n/a
130.500	1.500	structured	structured	3	16	central	1	0.698
132.000	1.500	structured	structured	3	13	central	1	0.844
133.500	1.500	structured	structured	3	11	boundary	0	n/a
135.000	1.500	structured	structured	3	16	central	1	0.647
136.500	1.500	structured	structured	3	15	central	0	n/a
138.000	1.500	structured	structured	3	12	central	0	n/a
139.500	1.500	structured	structured	3	16	central	1	0.674
141.000	1.500	structured	structured	3	12	central	0	n/a
142.500	1.500	structured	structured	3	11	boundary	0	n/a
144.000	1.500	structured	structured	3	16	central	1	0.793
145.500	1.500	structured	structured	3	14	central	0	n/a
147.000	1.500	structured	structured	3	12	central	0	n/a
148.500	1.500	structured	structured	3	13	central	1	0.697
150.000	1.500	structured	structured	3	11	boundary	0	n/a
151.500	1.500	structured	structured	3	12	central	0	n/a
153.000	1.500	structured	structured	3	13	central	1	0.671
154.500	1.500	structured	structured	3	17	boundary	0	n/a
156.000	1.500	structured	structured	3	12	central	0	n/a
157.500	1.500	hamiltonian	forward	3	13	central	1	0.709
159.000	1.500	hamiltonian	forward	3	14	central	0	n/a
160.500	1.500	hamiltonian	forward	3	15	central	0	n/a
162.000	1.500	hamiltonian	forward	3	16	central	1	0.671
163.500	1.500	hamiltonian	forward	3	17	boundary	0	n/a
165.000	1.500	hamiltonian	forward	1	18	boundary	1	0.857
166.500	1.500	hamiltonian	forward	1	19	central	0	n/a
168.000	1.500	hamiltonian	forward	1	20	central	1	0.849
169.500	1.500	hamiltonian	forward	1	21	central	0	n/a
171.000	1.500	hamiltonian	forward	1	1	central	0	n/a
172.500	1.500	hamiltonian	forward	1	2	central	0	n/a
174.000	1.500	hamiltonian	forward	1	3	boundary	0	n/a
175.500	1.500	hamiltonian	forward	2	4	boundary	0	n/a
177.000	1.500	hamiltonian	forward	2	5	central	0	n/a
178.500	1.500	hamiltonian	forward	2	6	central	1	0.687
180.000	1.500	hamiltonian	forward	2	7	central	1	0.874
181.500	1.500	hamiltonian	forward	2	8	central	0	n/a
183.000	1.500	hamiltonian	forward	2	9	central	0	n/a
184.500	1.500	hamiltonian	forward	2	10	boundary	1	0.682
186.000	1.500	hamiltonian	forward	3	11	boundary	0	n/a
187.500	1.500	hamiltonian	forward	3	12	central	0	n/a
189.000	1.500	structured	structured	3	17	boundary	0	n/a
190.500	1.500	structured	structured	3	12	central	0	n/a
192.000	1.500	structured	structured	3	13	central	1	0.736
193.500	1.500	structured	structured	3	11	boundary	0	n/a
195.000	1.500	structured	structured	3	15	central	0	n/a
196.500	1.500	structured	structured	3	17	boundary	0	n/a
198.000	1.500	structured	structured	3	12	central	0	n/a
199.500	1.500	structured	structured	3	11	boundary	0	n/a
201.000	1.500	structured	structured	3	16	central	1	0.620
202.500	1.500	structured	structured	3	14	central	0	n/a
204.000	1.500	structured	structured	3	15	central	0	n/a
205.500	1.500	structured	structured	3	14	central	0	n/a
207.000	1.500	structured	structured	3	13	central	1	0.619
208.500	1.500	structured	structured	3	16	central	1	0.637
210.000	1.500	structured	structured	3	11	boundary	0	n/a
211.500	1.500	structured	structured	2	10	boundary	1	0.688
213.000	1.500	structured	structured	2	5	central	0	n/a
214.500	1.500	structured	structured	2	7	central	1	0.725
216.000	1.500	structured	structured	2	6	central	1	0.655
217.500	1.500	structured	structured	2	9	central	0	n/a
219.000	1.500	structured	structured	2	5	central	0	n/a
220.500	1.500	hamiltonian	forward	2	6	central	1	0.633
222.000	1.500	hamiltonian	forward	2	7	central	1	0.629
223.500	1.500	hamiltonian	forward	2	8	central	0	n/a
225.000	1.500	hamiltonian	forward	2	9	central	0	n/a
226.500	1.500	hamiltonian	forward	2	10	boundary	1	0.799
228.000	1.500	hamiltonian	forward	3	11	boundary	0	n/a
229.500	1.500	hamiltonian	forward	3	12	central	0	n/a
231.000	1.500	hamiltonian	forward	3	13	central	1	0.734
232.500	1.500	hamiltonian	forward	3	14	central	0	n/a
234.000	1.500	hamiltonian	forward	3	15	central	0	n/a
235.500	1.500	hamiltonian	forward	3	16	central	1	0.682
237.000	1.500	hamiltonian	forward	3	17	boundary	0	n/a
238.500	1.500	hamiltonian	forward	1	18	boundary	1	0.836
240.000	1.500	hamiltonian	forward	1	19	central	0	n/a
241.500	1.500	hamiltonian	forward	1	20	central	0	n/a
243.000	1.500	hamiltonian	forward	1	21	central	0	n/a
244.500	1.500	hamiltonian	forward	1	1	central	0	n/a
246.000	1.500	hamiltonian	forward	1	2	central	0	n/a
247.500	1.500	hamiltonian	forward	1	3	boundary	0	n/a
249.000	1.500	hamiltonian	forward	2	4	boundary	0	n/a
250.500	1.500	hamiltonian	forward	2	5	central	0	n/a
252.000	1.500	structured	structured	2	9	central	0	n/a
253.500	1.500	structured	structured	2	10	boundary	1	0.590
255.000	1.500	structured	structured	2	5	central	0	n/a
256.500	1.500	structured	structured	2	8	central	0	n/a
258.000	1.500	structured	structured	2	10	boundary	1	0.559
259.500	1.500	structured	structured	3	11	boundary	0	n/a
261.000	1.500	structured	structured	2	10	boundary	1	0.667
262.500	1.500	structured	structured	2	9	central	0	n/a
264.000	1.500	structured	structured	2	4	boundary	0	n/a
265.500	1.500	structured	structured	2	8	central	0	n/a
267.000	1.500	structured	structured	2	9	central	0	n/a
268.500	1.500	structured	structured	2	8	central	0	n/a
270.000	1.500	structured	structured	2	9	central	0	n/a
271.500	1.500	structured	structured	2	7	central	1	0.647
273.000	1.500	structured	structured	2	5	central	0	n/a
274.500	1.500	structured	structured	2	9	central	0	n/a
276.000	1.500	structured	structured	2	6	central	1	1.239
277.500	1.500	structured	structured	2	10	boundary	1	1.037
279.000	1.500	structured	structured	2	9	central	0	n/a
280.500	1.500	structured	structured	2	8	central	0	n/a
282.000	1.500	structured	structured	2	9	central	0	n/a
283.500	1.500	hamiltonian	backward	2	8	central	0	n/a
285.000	1.500	hamiltonian	backward	2	7	central	1	0.597
286.500	1.500	hamiltonian	backward	2	6	central	1	0.546
288.000	1.500	hamiltonian	backward	2	5	central	0	n/a
289.500	1.500	hamiltonian	backward	2	4	boundary	0	n/a
291.000	1.500	hamiltonian	backward	1	3	boundary	0	n/a
292.500	1.500	hamiltonian	backward	1	2	central	0	n/a
294.000	1.500	hamiltonian	backward	1	1	central	0	n/a
295.500	1.500	hamiltonian	backward	1	21	central	0	n/a
297.000	1.500	hamiltonian	backward	1	20	central	0	n/a
298.500	1.500	hamiltonian	backward	1	19	central	0	n/a
300.000	1.500	hamiltonian	backward	1	18	boundary	1	1.064
301.500	1.500	hamiltonian	backward	3	17	boundary	0	n/a
303.000	1.500	hamiltonian	backward	3	16	central	1	0.639
304.500	1.500	hamiltonian	backward	3	15	central	0	n/a
306.000	1.500	hamiltonian	backward	3	14	central	0	n/a
307.500	1.500	hamiltonian	backward	3	13	central	1	0.709
309.000	1.500	hamiltonian	backward	3	12	central	0	n/a
310.500	1.500	hamiltonian	backward	3	11	boundary	0	n/a
312.000	1.500	hamiltonian	backward	2	10	boundary	1	0.606
313.500	1.500	hamiltonian	backward	2	9	central	0	n/a
315.000	1.500	structured	structured	2	6	central	1	0.620
316.500	1.500	structured	structured	2	10	boundary	1	0.876
318.000	1.500	structured	structured	3	11	boundary	0	n/a
319.500	1.500	structured	structured	3	15	central	0	n/a
321.000	1.500	structured	structured	3	11	boundary	0	n/a
322.500	1.500	structured	structured	3	15	central	0	n/a
324.000	1.500	structured	structured	3	11	boundary	0	n/a
325.500	1.500	structured	structured	3	13	central	1	0.632
327.000	1.500	structured	structured	3	14	central	0	n/a
328.500	1.500	structured	structured	3	12	central	0	n/a
330.000	1.500	structured	structured	3	14	central	0	n/a
331.500	1.500	structured	structured	3	15	central	0	n/a
333.000	1.500	structured	structured	3	13	central	1	0.668
334.500	1.500	structured	structured	3	17	boundary	0	n/a
336.000	1.500	structured	structured	1	18	boundary	1	0.869
337.500	1.500	structured	structured	1	1	central	0	n/a
339.000	1.500	structured	structured	1	2	central	0	n/a
340.500	1.500	structured	structured	1	21	central	0	n/a
342.000	1.500	structured	structured	1	18	boundary	1	0.760
343.500	1.500	structured	structured	1	20	central	0	n/a
345.000	1.500	structured	structured	1	18	boundary	1	0.677
346.500	1.500	hamiltonian	forward	1	19	central	0	n/a
348.000	1.500	hamiltonian	forward	1	20	central	0	n/a
349.500	1.500	hamiltonian	forward	1	21	central	0	n/a
351.000	1.500	hamiltonian	forward	1	1	central	0	n/a
352.500	1.500	hamiltonian	forward	1	2	central	0	n/a
354.000	1.500	hamiltonian	forward	1	3	boundary	0	n/a
355.500	1.500	hamiltonian	forward	2	4	boundary	0	n/a
357.000	1.500	hamiltonian	forward	2	5	central	0	n/a
358.500	1.500	hamiltonian	forward	2	6	central	1	0.704
360.000	1.500	hamiltonian	forward	2	7	central	1	1.194
361.500	1.500	hamiltonian	forward	2	8	central	0	n/a
363.000	1.500	hamiltonian	forward	2	9	central	0	n/a
364.500	1.500	hamiltonian	forward	2	10	boundary	1	0.728
366.000	1.500	hamiltonian	forward	3	11	boundary	0	n/a
367.500	1.500	hamiltonian	forward	3	12	central	0	n/a
369.000	1.500	hamiltonian	forward	3	13	central	1	0.847
370.500	1.500	hamiltonian	forward	3	14	central	0	n/a
372.000	1.500	hamiltonian	forward	3	15	central	0	n/a
373.500	1.500	hamiltonian	forward	3	16	central	1	0.716
375.000	1.500	hamiltonian	forward	3	17	boundary	0	n/a
376.500	1.500	hamiltonian	forward	1	18	boundary	1	0.751
