onset	duration	trial_type	block	community	object	object_type	orientation	response	response_time
4.000	1.000	structured	1	2	9	central	canonical	canonical	0.953
10.000	1.000	structured	1	2	8	central	canonical	canonical	0.771
16.000	1.000	structured	1	2	7	central	canonical	canonical	0.760
22.000	1.000	structured	1	2	4	boundary	canonical	canonical	0.697
28.000	1.000	structured	1	2	6	central	canonical	canonical	0.740
30.000	1.000	structured	1	2	8	central	canonical	canonical	0.757
34.000	1.000	structured	1	2	5	central	canonical	canonical	0.676
40.000	1.000	structured	1	2	10	boundary	canonical	canonical	0.693
42.000	1.000	structured	1	2	5	central	rotated	rotated	0.789
44.000	1.000	structured	1	2	8	central	canonical	canonical	0.738
46.000	1.000	structured	1	2	6	central	canonical	canonical	0.715
48.000	1.000	structured	1	2	9	central	canonical	canonical	0.676
50.000	1.000	structured	1	2	10	boundary	canonical	canonical	0.638
54.000	1.000	structured	1	2	9	central	rotated	rotated	0.728
58.000	1.000	structured	1	2	8	central	canonical	canonical	0.633
60.000	1.000	structured	1	2	10	boundary	canonical	canonical	0.675
64.000	1.000	structured	1	2	5	central	canonical	canonical	0.894
70.000	1.000	structured	1	2	6	central	canonical	canonical	0.711
74.000	1.000	structured	1	2	5	central	rotated	rotated	0.863
78.000	1.000	structured	1	2	9	central	canonical	canonical	0.749
84.000	1.000	structured	1	2	5	central	rotated	rotated	0.779
86.000	1.000	structured	2	2	10	boundary	canonical	canonical	0.710
88.000	1.000	structured	2	3	11	boundary	canonical	canonical	0.882
92.000	1.000	structured	2	2	10	boundary	rotated	rotated	0.854
96.000	1.000	structured	2	2	9	central	canonical	canonical	0.774
102.000	1.000	structured	2	2	7	central	canonical	canonical	0.754
104.000	1.000	structured	2	2	10	boundary	canonical	canonical	0.820
106.000	1.000	structured	2	2	9	central	canonical	canonical	0.773
112.000	1.000	structured	2	2	4	boundary	canonical	canonical	0.716
114.000	1.000	structured	2	2	5	central	canonical	canonical	0.687
116.000	1.000	structured	2	2	6	central	canonical	canonical	0.677
120.000	1.000	structured	2	2	5	central	rotated	rotated	0.778
126.000	1.000	structured	2	2	4	boundary	canonical	canonical	0.613
132.000	1.000	structured	2	1	3	boundary	canonical	canonical	0.731
136.000	1.000	structured	2	1	1	central	canonical	canonical	0.812
142.000	1.000	structured	2	1	20	central	canonical	canonical	0.706
144.000	1.000	structured	2	1	19	central	canonical	canonical	0.681
148.000	1.000	structured	2	1	20	central	rotated	rotated	0.918
150.000	1.000	structured	2	1	2	central	canonical	canonical	0.717
154.000	1.000	structured	2	1	20	central	rotated	rotated	0.917
160.000	1.000	structured	2	1	1	central	canonical	canonical	0.884
166.000	1.000	structured	2	1	3	boundary	canonical	canonical	0.712
172.000	1.000	scrambled	3	3	14	central	canonical	canonical	0.773
176.000	1.000	scrambled	3	2	8	central	canonical	canonical	0.762
178.000	1.000	scrambled	3	3	17	boundary	canonical	n/a	n/a
180.000	1.000	scrambled	3	2	9	central	canonical	canonical	0.595
186.000	1.000	scrambled	3	2	5	central	canonical	canonical	0.732
188.000	1.000	scrambled	3	1	1	central	canonical	canonical	0.720
192.000	1.000	scrambled	3	3	12	central	canonical	canonical	0.687
194.000	1.000	scrambled	3	2	4	boundary	canonical	canonical	0.530
198.000	1.000	scrambled	3	2	7	central	canonical	canonical	0.685
204.000	1.000	scrambled	3	3	13	central	canonical	canonical	0.686
208.000	1.000	scrambled	3	1	19	central	canonical	canonical	0.604
212.000	1.000	scrambled	3	2	6	central	canonical	canonical	0.786
214.000	1.000	scrambled	3	1	3	boundary	canonical	canonical	0.654
216.000	1.000	scrambled	3	1	2	central	canonical	canonical	0.688
220.000	1.000	scrambled	3	1	18	boundary	canonical	canonical	0.579
226.000	1.000	scrambled	3	3	11	boundary	canonical	canonical	0.543
230.000	1.000	scrambled	3	1	21	central	canonical	canonical	0.640
234.000	1.000	scrambled	3	3	16	central	canonical	n/a	n/a
238.000	1.000	scrambled	3	1	20	central	canonical	canonical	0.795
244.000	1.000	scrambled	3	3	15	central	canonical	canonical	0.690
250.000	1.000	scrambled	3	2	10	boundary	canonical	canonical	0.645
256.000	1.000	structured	4	2	9	central	canonical	canonical	0.750
260.000	1.000	structured	4	2	10	boundary	rotated	rotated	0.735
264.000	1.000	structured	4	2	7	central	canonical	canonical	0.672
268.000	1.000	structured	4	2	6	central	canonical	canonical	0.680
274.000	1.000	structured	4	2	8	central	canonical	canonical	0.658
278.000	1.000	structured	4	2	9	central	canonical	canonical	0.726
282.000	1.000	structured	4	2	8	central	rotated	rotated	0.935
286.000	1.000	structured	4	2	10	boundary	canonical	canonical	0.830
288.000	1.000	structured	4	2	8	central	rotated	rotated	0.919
294.000	1.000	structured	4	2	9	central	canonical	canonical	0.773
298.000	1.000	structured	4	2	5	central	canonical	canonical	0.745
300.000	1.000	structured	4	2	7	central	canonical	canonical	0.752
302.000	1.000	structured	4	2	4	boundary	canonical	canonical	0.638
306.000	1.000	structured	4	2	5	central	canonical	canonical	0.674
308.000	1.000	structured	4	2	9	central	canonical	canonical	0.657
310.000	1.000	structured	4	2	5	central	rotated	rotated	0.747
314.000	1.000	structured	4	2	7	central	canonical	canonical	0.614
316.000	1.000	structured	4	2	5	central	rotated	rotated	0.732
320.000	1.000	structured	4	2	8	central	canonical	canonical	0.716
326.000	1.000	structured	4	2	7	central	canonical	canonical	0.605
328.000	1.000	structured	4	2	5	central	canonical	canonical	0.632
334.000	1.000	structured	5	2	7	central	rotated	rotated	0.792
338.000	1.000	structured	5	2	9	central	canonical	canonical	0.630
344.000	1.000	structured	5	2	7	central	rotated	rotated	0.755
350.000	1.000	structured	5	2	9	central	rotated	rotated	0.858
352.000	1.000	structured	5	2	5	central	canonical	canonical	0.719
358.000	1.000	structured	5	2	4	boundary	canonical	canonical	0.737
362.000	1.000	structured	5	2	8	central	canonical	canonical	0.756
366.000	1.000	structured	5	2	10	boundary	canonical	canonical	0.695
368.000	1.000	structured	5	2	7	central	canonical	canonical	0.618
370.000	1.000	structured	5	2	5	central	canonical	canonical	0.680
376.000	1.000	structured	5	2	6	central	canonical	canonical	0.703
380.000	1.000	structured	5	2	8	central	canonical	canonical	0.683
384.000	1.000	structured	5	2	6	central	rotated	rotated	0.808
386.000	1.000	structured	5	2	8	central	rotated	rotated	0.900
388.000	1.000	structured	5	2	6	central	rotated	rotated	0.782
394.000	1.000	structured	5	2	9	central	canonical	canonical	0.984
400.000	1.000	structured	5	2	10	boundary	canonical	canonical	0.729
402.000	1.000	structured	5	2	5	central	canonical	canonical	0.666
404.000	1.000	structured	5	2	8	central	canonical	canonical	0.696
410.000	1.000	structured	5	2	4	boundary	canonical	canonical	0.637
414.000	1.000	structured	5	2	7	central	canonical	canonical	0.619
420.000	1.000	scrambled	6	2	9	central	canonical	canonical	0.707
426.000	1.000	scrambled	6	3	12	central	canonical	canonical	0.673
428.000	1.000	scrambled	6	1	3	boundary	canonical	canonical	0.719
432.000	1.000	scrambled	6	3	13	central	canonical	canonical	0.675
434.000	1.000	scrambled	6	1	18	boundary	canonical	canonical	0.797
436.000	1.000	scrambled	6	3	11	boundary	canonical	canonical	0.818
442.000	1.000	scrambled	6	2	5	central	canonical	canonical	0.872
444.000	1.000	scrambled	6	3	16	central	canonical	canonical	0.738
446.000	1.000	scrambled	6	2	7	central	canonical	canonical	0.897
452.000	1.000	scrambled	6	1	2	central	canonical	canonical	0.636
456.000	1.000	scrambled	6	2	4	boundary	canonical	canonical	0.886
462.000	1.000	scrambled	6	1	20	central	canonical	canonical	0.722
466.000	1.000	scrambled	6	2	6	central	canonical	n/a	n/a
472.000	1.000	scrambled	6	3	17	boundary	canonical	canonical	0.573
474.000	1.000	scrambled	6	1	1	central	canonical	canonical	0.658
480.000	1.000	scrambled	6	3	14	central	canonical	canonical	0.608
482.000	1.000	scrambled	6	2	10	boundary	canonical	canonical	0.913
488.000	1.000	scrambled	6	1	21	central	canonical	canonical	0.653
492.000	1.000	scrambled	6	1	19	central	canonical	canonical	0.633
496.000	1.000	scrambled	6	3	15	central	canonical	n/a	n/a
500.000	1.000	scrambled	6	2	8	central	canonical	canonical	0.734
504.000	1.000	structured	7	2	5	central	canonical	canonical	0.655
506.000	1.000	structured	7	2	4	boundary	canonical	canonical	0.667
512.000	1.000	structured	7	2	6	central	canonical	canonical	0.634
518.000	1.000	structured	7	2	10	boundary	canonical	canonical	0.664
524.000	1.000	structured	7	2	5	central	canonical	canonical	0.694
528.000	1.000	structured	7	2	10	boundary	rotated	rotated	0.837
534.000	1.000	structured	7	2	8	central	canonical	canonical	0.678
540.000	1.000	structured	7	2	10	boundary	rotated	rotated	0.728
542.000	1.000	structured	7	2	6	central	canonical	canonical	0.767
548.000	1.000	structured	7	2	10	boundary	rotated	rotated	0.734
554.000	1.000	structured	7	2	8	central	canonical	canonical	0.706
556.000	1.000	structured	7	2	6	central	canonical	canonical	0.590
560.000	1.000	structured	7	2	5	central	canonical	canonical	0.693
562.000	1.000	structured	7	2	4	boundary	canonical	canonical	0.889
566.000	1.000	structured	7	2	8	central	canonical	canonical	0.991
568.000	1.000	structured	7	2	10	boundary	canonical	canonical	0.462
570.000	1.000	structured	7	2	9	central	canonical	canonical	0.562
576.000	1.000	structured	7	2	5	central	canonical	canonical	0.648
580.000	1.000	structured	7	2	7	central	canonical	canonical	0.668
586.000	1.000	structured	7	2	6	central	canonical	canonical	0.997
590.000	1.000	structured	7	2	8	central	canonical	canonical	0.632
